DeviceTag:,Xsens DOT 2,,,,,,,,,,,,,,,,,
FirmwareVersion:,1.3.0,,,,,,,,,,,,,,,,,
AppVersion:,2020.1.1,,,,,,,,,,,,,,,,,
Measurement Mode:,Sensor fusion Mode - Extended (Quaternion),,,,,,,,,,,,,,,,,
StartTime:,2020-06-16 16:50:55.975 +0200,,,,,,,,,,,,,,,,,
© Xsens Technologies B. V. 2005-2020,,,,,,,,,,,,,,,,,,,
PacketCounter,SampleTimeFine,Quat_W,Quat_X,Quat_Y,Quat_Z,FreeAcc_X,FreeAcc_Y,FreeAcc_Z,Status
1, 1703207292, 0.61850935, -0.43211883, -0.15725157, -0.63717467, 0.013373674, 0.10511166, 0.14391804, 0
2, 1703223959, 0.6189825, -0.43122318, -0.15624706, -0.63756907, 0.059139404, 0.07457711, 0.17676353, 0
3, 1703240626, 0.6192663, -0.43041384, -0.15566352, -0.63798296, 0.09347737, -0.026758077, 0.20240211, 0
4, 1703257293, 0.61928016, -0.42999658, -0.155709, -0.6382395, 0.014065, -0.019032128, 0.17244816, 0
5, 1703273960, 0.6192988, -0.42989287, -0.15578458, -0.63827294, -0.02157336, -0.0547828, 0.16479778, 0
6, 1703290627, 0.61932796, -0.4299125, -0.15585588, -0.638214, -0.014327181, -0.06565201, 0.120895386, 0
7, 1703307294, 0.6193635, -0.42993242, -0.15599966, -0.6381309, -0.04521522, -0.047718227, 0.122507095, 0
8, 1703323961, 0.61939305, -0.42999884, -0.15616584, -0.6380168, -0.029668551, -0.0057348954, 0.16612053, 0
9, 1703340628, 0.6193592, -0.43014517, -0.15641177, -0.6378909, -0.031346127, 0.038780615, 0.14677429, 0
10, 1703357295, 0.61923957, -0.43034726, -0.15660292, -0.63782394, -0.009557414, 0.011281369, 0.12363911, 0
11, 1703373962, 0.6190631, -0.43051037, -0.15674695, -0.6378495, -0.03700503, -0.0381255, 0.121489525, 0
12, 1703390629, 0.6188755, -0.4305684, -0.15688378, -0.63795894, -0.057909414, -0.14730287, 0.11388779, 0
13, 1703407296, 0.6187529, -0.43044356, -0.15701513, -0.63812983, -0.035900988, -0.19194734, 0.098052025, 0
14, 1703423963, 0.61871594, -0.43023345, -0.15704523, -0.63829976, 0.04661631, -0.13845332, 0.117277145, 0
15, 1703440630, 0.61872864, -0.43005106, -0.15695427, -0.6384328, 0.0599103, -0.09193379, 0.1332798, 0
16, 1703457297, 0.6189977, -0.42989275, -0.15696763, -0.63827527, 0.07010573, 0.01594072, 0.118982315, 0
17, 1703473964, 0.61903954, -0.42990693, -0.15693255, -0.63823384, 0.054990333, 0.0422102, 0.1210947, 0
18, 1703490631, 0.619233, -0.42991424, -0.15708026, -0.6380048, 0.010733316, 0.028048864, 0.14666748, 0
19, 1703507298, 0.6193361, -0.42991883, -0.15723874, -0.6378625, -0.028545845, -0.033820864, 0.12357521, 0
20, 1703523965, 0.619355, -0.4298599, -0.15733925, -0.63785905, -0.02648662, -0.04430094, 0.12884045, 0
21, 1703540632, 0.61941075, -0.4297019, -0.15740149, -0.63789606, -0.008844072, -0.06584379, 0.1298027, 0
22, 1703557299, 0.61891043, -0.42966413, -0.15690306, -0.6385295, 0.055390757, -0.035310578, 0.15463924, 0
23, 1703573966, 0.6188516, -0.4295867, -0.15668206, -0.63869303, 0.04765475, 0.0133307595, 0.15587425, 0
24, 1703590633, 0.6188762, -0.42950007, -0.15666142, -0.6387325, 0.0025232378, 0.025515346, 0.16250801, 0
25, 1703607300, 0.6188766, -0.42937514, -0.15674958, -0.63879454, 0.0036339853, 0.013134068, 0.11596489, 0
26, 1703623967, 0.6190514, -0.42920613, -0.15692525, -0.63869554, 0.0075679254, -0.021746023, 0.14991665, 0
27, 1703640634, 0.61904913, -0.42913145, -0.15683502, -0.63877016, 0.017329965, -0.03560539, 0.16848946, 0
28, 1703657301, 0.6200559, -0.42881587, -0.1574038, -0.6378651, -0.037963565, 0.022777312, 0.16409492, 0
29, 1703673968, 0.6200696, -0.42869556, -0.15743287, -0.63792527, -0.04528093, 0.060154714, 0.14438629, 0
30, 1703690635, 0.61988056, -0.42856935, -0.1574275, -0.6381952, -0.032321762, 0.026074128, 0.14534664, 0
31, 1703707302, 0.6204777, -0.42822742, -0.15796003, -0.6377127, 0.016811974, 0.0028412966, 0.1359148, 0
32, 1703723969, 0.62051207, -0.42807785, -0.15810128, -0.6377446, 0.05194564, -0.033788454, 0.15614128, 0
33, 1703740636, 0.6205204, -0.42800272, -0.15808758, -0.6377903, 0.088160105, -0.019318895, 0.14860058, 0
34, 1703757303, 0.6206413, -0.428001, -0.15810256, -0.6376702, 0.053839575, 0.032129765, 0.14449406, 0
35, 1703773970, 0.6208988, -0.4279803, -0.15832208, -0.63737875, -0.006273003, 0.04513576, 0.14588451, 0
36, 1703790637, 0.6212183, -0.42791125, -0.15871099, -0.63701713, -0.020528324, 0.028319761, 0.13518143, 0
37, 1703807304, 0.62096196, -0.42799753, -0.15876333, -0.63719594, -9.598764E-4, -0.015549797, 0.14739323, 0
38, 1703823971, 0.6204739, -0.42814586, -0.1586606, -0.63759726, 0.001187189, -0.045718905, 0.12644291, 0
39, 1703840638, 0.62051284, -0.4280878, -0.15878986, -0.6375661, -0.0021709814, -0.07932966, 0.10701561, 0
40, 1703857305, 0.62043506, -0.42799938, -0.15862171, -0.63774306, 0.033993527, -0.10441698, 0.13930607, 0
41, 1703873972, 0.6208117, -0.42781186, -0.15854667, -0.637521, 0.071299404, -0.058283687, 0.18753052, 0
42, 1703890639, 0.621288, -0.42765346, -0.15855893, -0.63716, 0.025376655, 0.058597945, 0.13093662, 0
43, 1703907306, 0.6214502, -0.42768848, -0.15859158, -0.6369702, 0.0015697315, 0.108143166, 0.15714073, 0
44, 1703923973, 0.6216123, -0.42776683, -0.158841, -0.6366973, -0.018588567, 0.059631243, 0.13607502, 0
45, 1703940640, 0.621261, -0.4279436, -0.15874507, -0.63694525, -0.019509664, -1.3008455E-4, 0.114058495, 0
46, 1703957307, 0.62109864, -0.42801678, -0.158729, -0.63705826, -0.02518544, -0.045569822, 0.15186024, 0
47, 1703973974, 0.6211251, -0.42794377, -0.15877126, -0.63707113, -0.029591216, -0.08190275, 0.13451767, 0
48, 1703990641, 0.621263, -0.42776412, -0.15877752, -0.6370557, 0.017290851, -0.059051007, 0.13651848, 0
49, 1704007308, 0.6215702, -0.42751247, -0.15879323, -0.636921, 0.008004446, -0.008625812, 0.12171841, 0
50, 1704023975, 0.62179065, -0.42726168, -0.15873595, -0.63688856, -0.0043595084, 0.04116818, 0.13152218, 0
51, 1704040642, 0.62213486, -0.42704025, -0.15885998, -0.6366699, 0.025916103, 0.031151894, 0.17881203, 0
52, 1704057309, 0.6221275, -0.42702144, -0.1588844, -0.6366835, 0.039925337, 0.09035444, 0.16381359, 0
53, 1704073976, 0.6223728, -0.42702746, -0.15924925, -0.6363485, 0.011305062, 0.07880642, 0.1332779, 0
54, 1704090643, 0.6223298, -0.42711076, -0.15947145, -0.6362791, 0.012837802, 0.01979699, 0.11070919, 0
55, 1704107310, 0.6223187, -0.42713863, -0.15955836, -0.6362493, 0.024395993, -0.07532431, 0.12459564, 0
56, 1704123977, 0.62225235, -0.4271179, -0.15947008, -0.6363503, 0.0059852297, -0.102374524, 0.14009094, 0
57, 1704140644, 0.6221519, -0.42699814, -0.15929413, -0.6365729, -0.010552159, -0.075995296, 0.12493515, 0
58, 1704157311, 0.62237394, -0.42676204, -0.15929736, -0.6365134, 0.012126919, -0.039697688, 0.14930153, 0
59, 1704173978, 0.62288415, -0.42650938, -0.15945333, -0.63614446, 0.02482402, 0.006034179, 0.12334347, 0
60, 1704190645, 0.62292045, -0.42639887, -0.15933453, -0.6362128, -0.0024046642, 0.027180294, 0.14522457, 0
61, 1704207312, 0.6229744, -0.42629132, -0.15933385, -0.63623226, 0.011803719, 0.015863832, 0.14488506, 0
62, 1704223979, 0.62310827, -0.42621613, -0.15935534, -0.63614607, 0.062272944, 0.015064326, 0.2040987, 0
63, 1704240646, 0.62314713, -0.42626318, -0.15932663, -0.63608366, 0.021652035, 0.0697908, 0.17005253, 0
64, 1704257313, 0.62318546, -0.42637816, -0.15953688, -0.6359163, -0.02926645, 0.079117775, 0.16014099, 0
65, 1704273980, 0.6229478, -0.4265769, -0.15967163, -0.635982, 0.006814463, 0.062075358, 0.13128662, 0
66, 1704290647, 0.62280947, -0.42672357, -0.1597851, -0.63599086, 0.01702476, 0.016514702, 0.10952568, 0
67, 1704307314, 0.62266874, -0.42682108, -0.15980558, -0.6360579, -0.0076943217, -0.055319905, 0.10704708, 0
68, 1704323981, 0.6222014, -0.42690885, -0.15950724, -0.6365311, -0.0032725648, -0.1365758, 0.16800117, 0
69, 1704340648, 0.6223135, -0.4267213, -0.15942568, -0.6365676, -0.0053990674, -0.12357763, 0.13824654, 0
70, 1704357315, 0.6221931, -0.42657, -0.15915781, -0.63685375, 0.02736011, -0.017869413, 0.16210938, 0
71, 1704373982, 0.6222064, -0.42646497, -0.15889852, -0.636976, 0.06352473, 0.05413998, 0.2062149, 0
72, 1704390649, 0.62245417, -0.42646813, -0.1588746, -0.6367376, 0.045446664, 0.16373554, 0.17158508, 0
73, 1704407316, 0.62259287, -0.42660624, -0.15904403, -0.63646716, -0.018237652, 0.18083584, 0.13358784, 0
74, 1704423983, 0.6224994, -0.42686978, -0.15936342, -0.63630176, -0.0019666904, 0.14362094, 0.16001225, 0
75, 1704440650, 0.6225346, -0.42717507, -0.15987882, -0.6359332, 0.020142764, 0.053113382, 0.16509628, 0
76, 1704457317, 0.6220308, -0.42758057, -0.16003121, -0.6361153, -0.037443448, 0.032209557, 0.10458279, 0
77, 1704473984, 0.621698, -0.42792097, -0.16028158, -0.6361487, 0.016948093, -0.06828075, 0.09184837, 0
78, 1704490651, 0.62163466, -0.42808038, -0.16048484, -0.63605213, -0.01296364, -0.1358172, 0.09169769, 0
79, 1704507318, 0.62168616, -0.42802653, -0.16060488, -0.6360078, -0.06690402, -0.17675717, 0.09922409, 0
80, 1704523985, 0.62175244, -0.427781, -0.16052145, -0.6361292, 0.00700322, -0.17469952, 0.1281929, 0
81, 1704540652, 0.621515, -0.42757422, -0.15989198, -0.6366586, 0.06469225, -0.05743143, 0.1787262, 0
82, 1704557319, 0.62166524, -0.42737737, -0.15959777, -0.63671774, 0.02345288, 0.11345048, 0.16209888, 0
83, 1704573986, 0.6215551, -0.4273749, -0.15944982, -0.63686407, -0.0034773028, 0.14806683, 0.154068, 0
84, 1704590653, 0.62148845, -0.42743298, -0.15953277, -0.63686925, 0.0013866744, 0.11546814, 0.15750504, 0
85, 1704607320, 0.6213074, -0.42761818, -0.15959913, -0.6369051, 0.04712804, 0.09152699, 0.13220882, 0
86, 1704623987, 0.62119406, -0.42790133, -0.15976663, -0.63678324, 0.028434759, 0.02977215, 0.15216827, 0
87, 1704640654, 0.6205017, -0.42823923, -0.1594802, -0.6373028, -0.011359487, -0.07499597, 0.09072876, 0
88, 1704657321, 0.6205405, -0.42824104, -0.15952706, -0.6372521, 0.021395108, -0.12626538, 0.12631989, 0
89, 1704673988, 0.6203557, -0.42822897, -0.15914145, -0.63753664, 0.040898178, -0.114573635, 0.14091587, 0
90, 1704690655, 0.6206323, -0.4280258, -0.15895012, -0.6374515, -5.147503E-4, -0.04628238, 0.11135101, 0
91, 1704707322, 0.62075555, -0.42786965, -0.15870115, -0.6374983, 0.0010488345, 0.023907617, 0.15539074, 0
92, 1704723989, 0.6208174, -0.42780435, -0.15854411, -0.637521, 0.0017061861, 0.08130999, 0.18713951, 0
93, 1704740656, 0.62064373, -0.42789194, -0.15843783, -0.6376578, -0.015499059, 0.11132622, 0.19321728, 0
94, 1704757323, 0.6205159, -0.4280357, -0.15860032, -0.6376453, -0.019254971, 0.10908237, 0.15613174, 0
95, 1704773990, 0.6204125, -0.42819932, -0.158775, -0.6375927, 0.026381122, 0.032358866, 0.13422775, 0
96, 1704790657, 0.62029546, -0.42832983, -0.15880455, -0.6376115, 0.024745679, -0.029684309, 0.10635567, 0
97, 1704807324, 0.62022513, -0.42843634, -0.1588019, -0.63760895, 0.03528655, -0.07983436, 0.13978958, 0
98, 1704823991, 0.6201616, -0.4285221, -0.15868764, -0.6376415, 0.038196575, -0.05793836, 0.15085793, 0
99, 1704840658, 0.6203389, -0.42852938, -0.15874101, -0.63745075, -0.024601959, -0.008693313, 0.115291595, 0
100, 1704857325, 0.6203356, -0.4284899, -0.15872602, -0.6374844, -0.03777872, 0.022909854, 0.13195801, 0
101, 1704873992, 0.6201449, -0.42848355, -0.15853092, -0.63772255, 0.02292427, 0.016244698, 0.13477707, 0
102, 1704890659, 0.6198629, -0.42860055, -0.15823627, -0.6379913, 0.050148036, 0.060931418, 0.16452026, 0
103, 1704907326, 0.619668, -0.4287964, -0.15811692, -0.6380787, -0.016641993, 0.072764196, 0.15555763, 0
104, 1704923993, 0.6194579, -0.42895263, -0.15811546, -0.63817793, -0.031856183, 0.027041491, 0.1209774, 0
105, 1704940660, 0.6191996, -0.42908186, -0.15807542, -0.6383516, 0.020098956, -0.026839882, 0.108561516, 0
106, 1704957327, 0.61907095, -0.4291778, -0.15799668, -0.6384315, 0.04173199, -0.05448039, 0.14465618, 0
107, 1704973994, 0.6190462, -0.42921528, -0.15797967, -0.6384345, -0.01829163, -0.055452224, 0.112291336, 0
108, 1704990661, 0.6190803, -0.42912078, -0.15795721, -0.6384704, -0.053345166, -0.05263596, 0.124676704, 0
109, 1705007328, 0.61916566, -0.42892417, -0.15789397, -0.6385354, 0.012131613, -0.025013782, 0.1463499, 0
110, 1705023995, 0.6189635, -0.42887568, -0.15756756, -0.6388445, 0.06764385, 0.052113164, 0.1947422, 0
111, 1705040662, 0.6192805, -0.42881846, -0.15766466, -0.6385518, 0.059191372, 0.13130492, 0.15403461, 0
112, 1705057329, 0.61957586, -0.4289118, -0.157941, -0.6381342, 0.0037958089, 0.17159894, 0.13760376, 0
113, 1705073996, 0.61946934, -0.4291756, -0.15816198, -0.63800544, 0.0016322033, 0.09859246, 0.14792156, 0
114, 1705090663, 0.61922866, -0.42946097, -0.15836132, -0.6379977, 4.5306075E-4, 0.0022268596, 0.096364975, 0
115, 1705107330, 0.61909217, -0.42961913, -0.15855378, -0.6379758, -0.017697532, -0.109050855, 0.09285641, 0
116, 1705123997, 0.6191995, -0.42954668, -0.15867966, -0.637889, -0.0098551335, -0.15058269, 0.107590675, 0
117, 1705140664, 0.6191475, -0.4293887, -0.15840092, -0.6381152, -0.0057898797, -0.1582769, 0.15833187, 0
118, 1705157331, 0.61934704, -0.42910072, -0.15817772, -0.6381704, -0.0010607925, -0.026174484, 0.15473366, 0
119, 1705173998, 0.61944944, -0.4289961, -0.15801962, -0.63818073, 0.05655649, 0.128781, 0.18949223, 0
120, 1705190665, 0.6192337, -0.42918593, -0.15787932, -0.6382971, 0.041370347, 0.20359974, 0.18179321, 0
121, 1705207332, 0.6192156, -0.42944723, -0.1581457, -0.638073, -0.004090846, 0.1761224, 0.12990093, 0
122, 1705223999, 0.6188042, -0.42976645, -0.15823339, -0.63823557, -0.031913403, 0.035203736, 0.115291595, 0
123, 1705240666, 0.61872953, -0.42988583, -0.15836278, -0.63819534, 0.016825944, -0.07479571, 0.115501404, 0
124, 1705257333, 0.61898273, -0.4298377, -0.15849324, -0.63794965, 0.027381344, -0.12070192, 0.13310719, 0
125, 1705274000, 0.61873645, -0.42986798, -0.15816432, -0.63824975, -0.010640781, -0.080343746, 0.13245201, 0
126, 1705290667, 0.61865693, -0.42981967, -0.15802112, -0.6383949, -0.013287286, 0.0043944884, 0.13938046, 0
127, 1705307334, 0.61857605, -0.4298595, -0.15794209, -0.63846594, 0.029473089, 0.048322607, 0.17588806, 0
128, 1705324001, 0.6183207, -0.42995724, -0.15778995, -0.638685, -0.010433473, 0.085797906, 0.102861404, 0
129, 1705340668, 0.6183005, -0.43001994, -0.1578417, -0.6386497, 0.021366386, 0.049303383, 0.14484406, 0
130, 1705357335, 0.61825323, -0.43011335, -0.15784319, -0.6386322, 0.022206683, 0.005328102, 0.17233181, 0
131, 1705374002, 0.6181694, -0.43022487, -0.1578608, -0.63863385, -0.021578947, 0.010354014, 0.13001537, 0
132, 1705390669, 0.61805075, -0.43028086, -0.15788962, -0.6387039, 2.026145E-4, -0.022396445, 0.16782951, 0
133, 1705407336, 0.6179863, -0.43024853, -0.15786757, -0.63879335, -0.020062411, 0.021206016, 0.120586395, 0
134, 1705424003, 0.6176695, -0.4302862, -0.1576636, -0.63912475, 0.021454003, 0.007141686, 0.15410042, 0
135, 1705440670, 0.617599, -0.43033847, -0.15761773, -0.6391689, 0.061770488, 0.038947355, 0.18366337, 0
136, 1705457337, 0.61739594, -0.43053252, -0.15752308, -0.63925785, 0.0014674743, 0.07845551, 0.12240124, 0
137, 1705474004, 0.6168183, -0.4308242, -0.15722631, -0.6396918, -0.016161216, 0.006098551, 0.15288544, 0
138, 1705490671, 0.6164714, -0.43099505, -0.15710999, -0.6399396, -0.013630044, -0.01691032, 0.10180855, 0
139, 1705507338, 0.6164233, -0.43102774, -0.15712777, -0.6399596, -0.0033291138, -0.048578084, 0.10997772, 0
140, 1705524005, 0.61652786, -0.43096173, -0.15715475, -0.6398967, -0.0027882124, -0.055038277, 0.14417362, 0
141, 1705540672, 0.6167547, -0.43077627, -0.15711051, -0.63981384, -0.005269765, -0.01837813, 0.14442253, 0
142, 1705557339, 0.61727625, -0.43046272, -0.15728049, -0.6394802, -0.009903301, -0.002793018, 0.1502285, 0
143, 1705574006, 0.6172233, -0.43034256, -0.15708806, -0.63965946, 0.016376011, 0.026248468, 0.14673042, 0
144, 1705590673, 0.6171801, -0.4303069, -0.15694126, -0.63976103, 0.0316976, 0.04390398, 0.15504456, 0
145, 1705607340, 0.61736596, -0.43026087, -0.15699121, -0.63960034, 0.04202323, 0.056266926, 0.14326096, 0
146, 1705624007, 0.6172659, -0.43035367, -0.15688266, -0.6396612, 0.009066468, 0.0874718, 0.13496208, 0
147, 1705640674, 0.6173373, -0.4304084, -0.15701917, -0.63952196, -0.006414263, 0.05682772, 0.13376522, 0
148, 1705657341, 0.61709225, -0.430554, -0.1569736, -0.63967156, -0.030275166, 0.015790744, 0.1665659, 0
149, 1705674008, 0.6170027, -0.43058985, -0.15702812, -0.6397203, -0.046839487, 0.0028737062, 0.14871693, 0
150, 1705690675, 0.61677897, -0.43058962, -0.15695307, -0.6399547, -0.01517843, -0.00827825, 0.12071705, 0
151, 1705707342, 0.6167319, -0.4305314, -0.15689147, -0.6400544, 0.035216477, -0.02418522, 0.11257839, 0
152, 1705724009, 0.6167825, -0.4304583, -0.15683404, -0.640069, 0.014705141, -0.025558036, 0.117554665, 0
153, 1705740676, 0.61694455, -0.43031242, -0.15681148, -0.6400163, -0.026821444, -0.041984227, 0.12862873, 0
154, 1705757343, 0.6168782, -0.43016094, -0.15654562, -0.6402471, 0.0026817084, -0.04118919, 0.15248108, 0
155, 1705774010, 0.6169494, -0.42999023, -0.15636979, -0.64033616, 0.014269626, 0.023105875, 0.19027519, 0
156, 1705790677, 0.6170086, -0.42990962, -0.15622348, -0.6403689, 0.034128863, 0.10893507, 0.14774513, 0
157, 1705807344, 0.6169318, -0.4300273, -0.1561019, -0.6403936, 0.03101857, 0.13455726, 0.10671902, 0
158, 1705824011, 0.6167893, -0.4302263, -0.15604062, -0.6404122, 0.013466767, 0.089181, 0.15520763, 0
159, 1705840678, 0.61666954, -0.43048093, -0.15606786, -0.64034975, 0.033884116, 0.07354336, 0.1304617, 0
160, 1705857345, 0.61635387, -0.4308408, -0.15593596, -0.64044356, 0.005712544, -0.028228791, 0.14060116, 0
161, 1705874012, 0.6162116, -0.43111077, -0.15592586, -0.64040154, -0.049511585, -0.04966145, 0.1383791, 0
162, 1705890679, 0.61615515, -0.4311895, -0.15591979, -0.6404044, -0.09053392, -0.076974735, 0.1013813, 0
163, 1705907346, 0.6160245, -0.43110555, -0.15578781, -0.6406185, -0.026776852, -0.0987431, 0.13867474, 0
164, 1705924013, 0.6160165, -0.43091413, -0.15559974, -0.6408007, 0.0056187804, -0.030189447, 0.1590929, 0
165, 1705940680, 0.6160699, -0.43076208, -0.15549101, -0.64087784, 0.020046094, 0.057281677, 0.15807343, 0
166, 1705957347, 0.61603683, -0.43073094, -0.1555142, -0.64092505, 0.0050299354, 0.11966235, 0.13302612, 0
167, 1705974014, 0.61603785, -0.43077186, -0.1556576, -0.64086175, 0.029500917, 0.09755983, 0.1371479, 0
168, 1705990681, 0.61608815, -0.4308139, -0.15578793, -0.6407535, -0.0045173084, 0.037546154, 0.13339806, 0
169, 1706007348, 0.6159497, -0.43080965, -0.15576199, -0.6408958, -0.0678611, -0.039584816, 0.11910725, 0
170, 1706024015, 0.6160759, -0.4305919, -0.15584224, -0.6409012, -0.019932885, -0.10413916, 0.14700794, 0
171, 1706040682, 0.61618227, -0.4303218, -0.15573388, -0.64100677, 0.006250987, -0.04680607, 0.129982, 0
172, 1706057349, 0.61638606, -0.4300255, -0.15563686, -0.64103305, -0.006129172, 0.013514487, 0.1545887, 0
173, 1706074016, 0.6165789, -0.4297564, -0.15558413, -0.64104116, 0.013451122, 0.06331608, 0.14296246, 0
174, 1706090683, 0.6166657, -0.42963773, -0.15552044, -0.64105254, 0.0120279025, 0.09365707, 0.17974567, 0
175, 1706107350, 0.6167573, -0.42962933, -0.1556326, -0.64094293, -0.005395491, 0.1139516, 0.15648365, 0
176, 1706124017, 0.6167299, -0.42967507, -0.15580992, -0.6408955, -0.0087089585, 0.05978614, 0.123729706, 0
177, 1706140684, 0.61671, -0.42966318, -0.1560116, -0.64087355, -0.017642437, -0.0014110373, 0.12498093, 0
178, 1706157351, 0.6166878, -0.4295947, -0.15617159, -0.6409019, 0.029017681, -0.04153921, 0.12549305, 0
179, 1706174018, 0.6165464, -0.4295274, -0.15605049, -0.64111245, 0.022725902, -0.045092396, 0.12742233, 0
180, 1706190685, 0.6163427, -0.42947692, -0.1557506, -0.6414149, 0.019815654, -0.00794298, 0.15319443, 0
181, 1706207352, 0.6165036, -0.4293577, -0.15574914, -0.6413404, 0.001151874, 0.0048589483, 0.15352535, 0
182, 1706224019, 0.61656725, -0.42928028, -0.15570493, -0.6413417, 0.002776925, 0.021964172, 0.1629982, 0
183, 1706240686, 0.6164557, -0.42931667, -0.1556198, -0.6414453, -0.016277667, 0.0728165, 0.12595463, 0
184, 1706257353, 0.61631036, -0.42937702, -0.15556808, -0.6415572, -0.027802106, 0.023727465, 0.13113403, 0
185, 1706274020, 0.6162935, -0.42932683, -0.15556064, -0.6416087, -0.0299485, -0.020277543, 0.12536049, 0
186, 1706290687, 0.6161909, -0.42920703, -0.15544257, -0.6418162, -0.015664682, -0.067789465, 0.14635086, 0
187, 1706307354, 0.61605036, -0.42907104, -0.15527576, -0.64208215, 0.010708282, -0.038666848, 0.16150284, 0
188, 1706324021, 0.61604524, -0.42896897, -0.1551963, -0.64217454, 0.01960108, 0.01073421, 0.14543438, 0
189, 1706340688, 0.61596453, -0.42892867, -0.15505446, -0.6423131, 0.009075631, 0.082819596, 0.13677597, 0
190, 1706357355, 0.61607677, -0.4289014, -0.15511948, -0.64220786, 0.017156743, 0.09573864, 0.16127586, 0
191, 1706374022, 0.6158598, -0.42904353, -0.15508386, -0.64232975, -6.1197847E-4, 0.09537633, 0.14148903, 0
192, 1706390689, 0.6157248, -0.42915764, -0.15516, -0.6423645, -0.024977349, 0.028514441, 0.12172413, 0
193, 1706407356, 0.6155527, -0.42920873, -0.15521167, -0.6424829, -0.023952877, -0.04276943, 0.113022804, 0
194, 1706424023, 0.61561215, -0.42914963, -0.15529582, -0.64244497, 0.0021061625, -0.06988289, 0.15330315, 0
195, 1706440690, 0.6156385, -0.42903444, -0.15529592, -0.64249665, -0.010738792, -0.0128654055, 0.12224579, 0
196, 1706457357, 0.61554885, -0.42893675, -0.15525393, -0.6426579, -0.028190348, 0.023731489, 0.13166142, 0
197, 1706474024, 0.6155856, -0.42882904, -0.15529023, -0.6426858, 0.0014352885, 0.041221153, 0.13685322, 0
198, 1706490691, 0.61557984, -0.42877644, -0.15526697, -0.6427319, -0.002740604, 0.033700835, 0.1397686, 0
199, 1706507358, 0.615338, -0.42876428, -0.15506874, -0.6430195, -0.035206977, -0.012278014, 0.1422615, 0
200, 1706524025, 0.6152401, -0.42870098, -0.15498118, -0.64317656, 0.0013718108, 0.0012197102, 0.14277172, 0
201, 1706540692, 0.6152619, -0.42860532, -0.15496159, -0.64322424, 0.0144931385, 0.018845718, 0.15348053, 0
202, 1706557359, 0.61537635, -0.42850864, -0.15506849, -0.64315337, 0.013012924, 0.021469537, 0.15594482, 0
203, 1706574026, 0.6152694, -0.4285429, -0.1550861, -0.64322853, 0.03612908, 0.079508476, 0.15402603, 0
204, 1706590693, 0.61522454, -0.4286439, -0.15518746, -0.64317966, 0.021299891, 0.07175191, 0.14764786, 0
205, 1706607360, 0.6150877, -0.42877573, -0.1552485, -0.643208, -0.00506268, 0.054464296, 0.10793781, 0
206, 1706624027, 0.61500335, -0.42882293, -0.15534225, -0.6432345, -0.0125275655, -0.0076875044, 0.120952606, 0
207, 1706640694, 0.6148358, -0.42882848, -0.1552159, -0.6434215, 0.02772857, -0.052208826, 0.12442875, 0
208, 1706657361, 0.614695, -0.42882222, -0.15493374, -0.6436282, 0.0055549676, -0.07362003, 0.1581974, 0
209, 1706674028, 0.61471194, -0.42878398, -0.15474948, -0.6436818, -0.032510743, -0.010275338, 0.16423321, 0
210, 1706690695, 0.6145397, -0.42880398, -0.15455674, -0.6438793, -0.03147923, 0.06985339, 0.16254902, 0
211, 1706707362, 0.61418885, -0.42892626, -0.1543672, -0.6441779, 0.0022547988, 0.112990044, 0.15356445, 0
212, 1706724029, 0.6141388, -0.4290671, -0.15447806, -0.6441054, 0.022104872, 0.10045164, 0.12691784, 0
213, 1706740696, 0.6139102, -0.42926323, -0.15445535, -0.6441979, 0.0091780005, 0.041713327, 0.11633301, 0
214, 1706757363, 0.6137517, -0.42941085, -0.15441401, -0.6442606, 0.009184259, -0.027050655, 0.13027477, 0
215, 1706774030, 0.6137012, -0.42947552, -0.15435375, -0.6442799, 0.0035969382, -0.06287129, 0.11302853, 0
216, 1706790697, 0.61361444, -0.42949042, -0.15414856, -0.6444017, -0.020072917, -0.061838437, 0.14272594, 0
217, 1706807364, 0.6136976, -0.4293954, -0.15398146, -0.6444259, -0.028468957, -0.043789316, 0.13868141, 0
218, 1706824031, 0.6136953, -0.42928112, -0.15377909, -0.6445525, -0.051349197, 4.447908E-5, 0.15325165, 0
219, 1706840698, 0.6135663, -0.4292188, -0.15354292, -0.6447731, -0.021895776, 0.051799573, 0.16542816, 0
220, 1706857365, 0.61352324, -0.42919666, -0.15342933, -0.64485586, 0.011931121, 0.10611345, 0.17710495, 0
221, 1706874032, 0.6134768, -0.4292544, -0.15341704, -0.6448644, -0.0030997894, 0.13168356, 0.14928436, 0
222, 1706890699, 0.6134738, -0.4293089, -0.15362494, -0.64478153, -0.034541693, 0.10457367, 0.13986397, 0
223, 1706907366, 0.6130567, -0.42948145, -0.153617, -0.64506525, 0.013789631, -5.4939487E-4, 0.13476276, 0
224, 1706924033, 0.61288524, -0.42960748, -0.15371403, -0.6451211, 0.029725602, -0.065197386, 0.16362953, 0
225, 1706940700, 0.61279935, -0.42964682, -0.15372847, -0.6451731, -0.012455204, -0.059483055, 0.099261284, 0
226, 1706957367, 0.6127879, -0.4295674, -0.1536751, -0.6452495, 0.008347091, -0.06536078, 0.115971565, 0
227, 1706974034, 0.6129989, -0.42941007, -0.1535967, -0.64517254, 0.014484422, -0.036173113, 0.13287544, 0
228, 1706990701, 0.61319464, -0.429304, -0.153522, -0.64507496, -0.017831864, 0.05272268, 0.14990044, 0
229, 1707007368, 0.61314535, -0.42934242, -0.15340541, -0.64512384, 0.0028859994, 0.089855336, 0.17889977, 0
230, 1707024035, 0.61287504, -0.4295173, -0.1532399, -0.64530337, -0.011866974, 0.09843242, 0.122107506, 0
231, 1707040702, 0.6126531, -0.4297397, -0.15322243, -0.6453705, -0.0033012864, 0.04909708, 0.15868378, 0
232, 1707057369, 0.61244535, -0.42991096, -0.1532552, -0.64544576, -0.04328021, -0.028782435, 0.15569496, 0
233, 1707074036, 0.61222464, -0.4299837, -0.1531655, -0.6456278, -0.019388407, -0.07516674, 0.102371216, 0
234, 1707090703, 0.6121732, -0.4299637, -0.15308388, -0.6457094, 0.009222759, -0.060976792, 0.13006115, 0
235, 1707107370, 0.61221707, -0.42987782, -0.15292624, -0.6457624, 0.015841704, -0.023961036, 0.112929344, 0
236, 1707124037, 0.6122614, -0.42976603, -0.15273362, -0.64584035, 0.0041332575, 0.05549134, 0.15714073, 0
237, 1707140704, 0.6122463, -0.42972636, -0.15259735, -0.64591324, 0.020020949, 0.087390885, 0.1635561, 0
238, 1707157371, 0.6120388, -0.42983246, -0.15244861, -0.64607435, 0.022346936, 0.112301625, 0.18785, 0
239, 1707174038, 0.6119394, -0.42999846, -0.15250878, -0.646044, -0.03135764, 0.11468271, 0.15008259, 0
240, 1707190705, 0.611853, -0.43013978, -0.15271328, -0.64598334, -0.047528744, 0.03934476, 0.13706684, 0
241, 1707207372, 0.6117404, -0.43021846, -0.15281639, -0.646013, -0.025999026, -0.05329912, 0.12979317, 0
242, 1707224039, 0.61164975, -0.43022817, -0.15282904, -0.6460894, -0.006501489, -0.056523297, 0.12689114, 0
243, 1707240706, 0.6117356, -0.43014166, -0.15288244, -0.64605314, -0.019941714, -0.05356108, 0.13160992, 0
244, 1707257373, 0.61160964, -0.43005523, -0.15274769, -0.6462618, 0.004003061, 0.010375025, 0.11210537, 0
245, 1707274040, 0.6115773, -0.4299918, -0.15266404, -0.6463544, 0.03522564, 0.03822362, 0.14798164, 0
246, 1707290707, 0.6115057, -0.43002108, -0.15253994, -0.6464319, 0.0053467653, 0.026942251, 0.13550377, 0
247, 1707307374, 0.61147714, -0.4300362, -0.15247363, -0.6464645, -0.020424893, -0.008258357, 0.14023304, 0
248, 1707324041, 0.6112052, -0.43005726, -0.15221745, -0.6467679, -0.0239027, -0.01948273, 0.15283775, 0
249, 1707340708, 0.61121726, -0.42996305, -0.15212525, -0.646841, -0.016831309, 0.0046562217, 0.16506386, 0
250, 1707357375, 0.6111836, -0.42990604, -0.15201466, -0.6469368, -0.004021501, 0.062152024, 0.12813473, 0
251, 1707374042, 0.6111629, -0.42990005, -0.1519712, -0.6469704, 0.009149279, 0.080757245, 0.14878368, 0
252, 1707390709, 0.61110395, -0.42994946, -0.15191783, -0.64700574, 0.019945737, 0.034444463, 0.15524864, 0
253, 1707407376, 0.6110569, -0.4300257, -0.15186708, -0.64701134, -0.012192856, 0.018003298, 0.14424133, 0
254, 1707424043, 0.6109777, -0.43008232, -0.15178482, -0.64706784, -0.025208462, -0.009819372, 0.14024162, 0
255, 1707440710, 0.6108214, -0.43010017, -0.15165924, -0.64723307, -0.017954014, -0.027911628, 0.14086723, 0
256, 1707457377, 0.61072266, -0.43005425, -0.15156946, -0.6473777, -0.021442827, -0.036901988, 0.12421799, 0
257, 1707474044, 0.610741, -0.42993027, -0.15148807, -0.6474617, -0.013533374, -0.0046276124, 0.13092041, 0
258, 1707490711, 0.6105416, -0.42987815, -0.1512526, -0.64773947, -0.009833173, 0.0043357043, 0.147748, 0
259, 1707507378, 0.6105166, -0.4297813, -0.15110256, -0.6478624, -5.957738E-4, 0.025086647, 0.18178082, 0
260, 1707524045, 0.610478, -0.42971763, -0.15096395, -0.6479733, -0.005485846, 0.07508851, 0.14959335, 0
261, 1707540712, 0.6104665, -0.42970097, -0.15093644, -0.6480016, 0.022645326, 0.07141172, 0.16293812, 0
262, 1707557379, 0.61013484, -0.42986363, -0.15075387, -0.6482484, 0.053341534, 0.06739832, 0.17461586, 0
263, 1707574046, 0.60998344, -0.43001765, -0.15069503, -0.6483024, 0.024958517, 0.028463257, 0.14068699, 0
264, 1707590713, 0.61002976, -0.43004316, -0.15077518, -0.64822334, -0.03431639, -0.020986525, 0.11500549, 0
265, 1707607380, 0.6100898, -0.4299468, -0.15080339, -0.64822423, -0.029861778, -0.036026936, 0.12035656, 0
266, 1707624047, 0.60994726, -0.42984676, -0.15059032, -0.6484743, 0.009896204, -0.027212031, 0.15842819, 0
267, 1707640714, 0.60997504, -0.42971337, -0.15048125, -0.6485617, -0.025111122, 0.030779298, 0.16725731, 0
268, 1707657381, 0.6098901, -0.4296434, -0.1503614, -0.64871573, -0.028338928, 0.06821325, 0.17378807, 0
269, 1707674048, 0.6098382, -0.42963624, -0.15038764, -0.6487632, 0.0114610735, 0.067562826, 0.14289856, 0
270, 1707690715, 0.60969883, -0.42973754, -0.15045048, -0.64881253, 0.011651674, 0.062417783, 0.16570568, 0
271, 1707707382, 0.6095976, -0.4298185, -0.150581, -0.64882374, 0.0035569852, 0.0023415217, 0.12130356, 0
272, 1707724049, 0.6095298, -0.42981854, -0.15068783, -0.6488626, 0.006291275, -0.054793976, 0.101659775, 0
273, 1707740716, 0.60949355, -0.42976448, -0.15065226, -0.6489407, 0.03208305, -0.06848236, 0.085214615, 0
274, 1707757383, 0.6095133, -0.42967242, -0.15045957, -0.6490278, 0.023301784, -0.044416495, 0.13371944, 0
275, 1707774050, 0.6095773, -0.42954934, -0.15022771, -0.6491029, -0.034552477, -0.007340389, 0.13788414, 0
276, 1707790717, 0.6095638, -0.42944643, -0.14996581, -0.64924425, -0.018487874, 0.034526717, 0.19678307, 0
277, 1707807384, 0.6095006, -0.4294084, -0.14975236, -0.6493781, -0.015904233, 0.043070722, 0.18643379, 0
278, 1707824051, 0.60934615, -0.42946923, -0.14966588, -0.6495027, -0.025064575, 0.09475854, 0.15650463, 0
279, 1707840718, 0.6091592, -0.429577, -0.14970484, -0.6495977, -0.013618924, 0.06774789, 0.16120529, 0
280, 1707857385, 0.60898226, -0.42967772, -0.14973082, -0.6496911, 0.031243758, 0.029837638, 0.15273952, 0
281, 1707874052, 0.6089287, -0.42971256, -0.1497796, -0.64970696, 0.016572814, 0.01688618, 0.14046288, 0
282, 1707890719, 0.6088954, -0.42971474, -0.1498167, -0.64972806, 0.013091489, 0.0162105, 0.12352276, 0
283, 1707907386, 0.60890377, -0.42967921, -0.1498198, -0.64974314, 0.021816708, -0.032094, 0.13293648, 0
284, 1707924053, 0.60898316, -0.4295995, -0.14982635, -0.6497199, 0.020249492, -0.018023862, 0.16510391, 0
285, 1707940720, 0.60904396, -0.42951182, -0.14976917, -0.64973396, -0.025907498, 0.015076396, 0.1442852, 0
286, 1707957387, 0.6090158, -0.42948002, -0.14970504, -0.6497962, -0.03305114, 0.043624364, 0.14737034, 0
287, 1707974054, 0.6089735, -0.42949417, -0.14968187, -0.64983183, -0.007637885, 0.0670588, 0.15559196, 0
288, 1707990721, 0.6089005, -0.42953774, -0.14972845, -0.64986074, -0.007582733, 0.04846543, 0.14318943, 0
289, 1708007388, 0.6088523, -0.4295905, -0.14980873, -0.64985245, -0.005416613, 0.015895572, 0.123999596, 0
290, 1708024055, 0.6088021, -0.429615, -0.14988959, -0.6498646, -8.01741E-4, -0.034060914, 0.12903976, 0
291, 1708040722, 0.60880184, -0.42953786, -0.14991406, -0.6499103, -0.01739294, -0.031623285, 0.116090775, 0
292, 1708057389, 0.6088977, -0.42938372, -0.14990453, -0.6499247, 0.0040592747, -0.042896383, 0.1417284, 0
293, 1708074056, 0.6089722, -0.42922848, -0.14979972, -0.64998144, 0.027725106, -0.0077322074, 0.18500328, 0
294, 1708090723, 0.6090546, -0.42916116, -0.14969036, -0.64997387, 0.04173501, 0.062482376, 0.18021011, 0
295, 1708107390, 0.6090719, -0.4292097, -0.14968693, -0.64992636, -0.008789256, 0.10428288, 0.16100979, 0
296, 1708124057, 0.6090111, -0.4293008, -0.14977492, -0.6499029, -0.013862274, 0.0868692, 0.13893223, 0
297, 1708140724, 0.60894763, -0.42940128, -0.14990067, -0.64986706, -0.00776484, 0.0752577, 0.12941933, 0
298, 1708157391, 0.60880995, -0.42952588, -0.14999032, -0.649893, 0.014165413, 0.0062621627, 0.14556313, 0
299, 1708174058, 0.60868204, -0.42965305, -0.14998895, -0.649929, -0.014273649, -0.036484018, 0.14536953, 0
300, 1708190725, 0.60867107, -0.42967427, -0.14998603, -0.64992607, -0.023342744, -0.06832992, 0.13839245, 0
301, 1708207392, 0.6086485, -0.42961964, -0.14984621, -0.6500154, 0.0109160375, -0.05407896, 0.16502571, 0
302, 1708224059, 0.6087111, -0.429602, -0.14975645, -0.64998925, 0.011601887, 0.033568963, 0.13923645, 0
303, 1708240726, 0.608674, -0.42961812, -0.14970207, -0.65002596, -0.04100971, 0.062210362, 0.120817184, 0
304, 1708257393, 0.60863465, -0.42958945, -0.14973868, -0.6500732, -0.031989902, 0.035675798, 0.1472702, 0
305, 1708274060, 0.6085343, -0.4296031, -0.14972647, -0.65016097, -1.7881036E-6, 0.03303678, 0.11998749, 0
306, 1708290727, 0.6084932, -0.42959303, -0.1498251, -0.6501833, -0.0129775535, 0.014513143, 0.11271, 0
307, 1708307394, 0.60845554, -0.42950743, -0.1498635, -0.6502663, -0.013902506, -0.02445433, 0.13314056, 0
308, 1708324061, 0.60842437, -0.42935023, -0.14981453, -0.65041053, -0.012473029, -0.025976453, 0.13313389, 0
309, 1708340728, 0.60837734, -0.42917398, -0.14968245, -0.65060127, 0.035172, -0.008694654, 0.17895031, 0
310, 1708357395, 0.6083542, -0.4290978, -0.1495408, -0.6507057, 0.045470133, 0.043205947, 0.14884281, 0
311, 1708374062, 0.60834455, -0.42909166, -0.14945136, -0.6507393, 0.015950164, 0.06321684, 0.14095116, 0
312, 1708390729, 0.60840076, -0.42907995, -0.1494381, -0.6506977, 0.009162467, 0.026987402, 0.14949608, 0
313, 1708407396, 0.6084058, -0.42906085, -0.14941451, -0.6507107, -0.021141531, 0.012645916, 0.13656807, 0
314, 1708424063, 0.60845405, -0.4290582, -0.1495047, -0.6506466, -0.006457289, 0.017292304, 0.18695354, 0
315, 1708440730, 0.60835135, -0.4291155, -0.14953308, -0.6506983, -0.0073995083, 0.039710652, 0.16546345, 0
316, 1708457397, 0.6082914, -0.42917275, -0.14961012, -0.6506991, -0.012675587, 0.05502576, 0.13092518, 0
317, 1708474064, 0.60823816, -0.42920464, -0.14965758, -0.6507168, -0.016600084, -8.1157556E-4, 0.12073803, 0
318, 1708490731, 0.6082502, -0.42917123, -0.14968643, -0.65072095, 0.016729163, -0.019959707, 0.15007019, 0
319, 1708507398, 0.60821044, -0.4291589, -0.14965872, -0.6507726, 0.034811135, -0.0055972114, 0.14946938, 0
320, 1708524065, 0.6082311, -0.42914557, -0.14963795, -0.6507669, 0.004676506, 0.01569441, 0.12197971, 0
321, 1708540732, 0.6081603, -0.42911854, -0.14956038, -0.65086865, -0.01382735, -0.008854913, 0.13492489, 0
322, 1708557399, 0.6081199, -0.4291012, -0.14944872, -0.65094346, 0.009922187, -3.609734E-4, 0.15437126, 0
323, 1708574066, 0.6081349, -0.42911842, -0.14940153, -0.65092903, -0.01841188, 0.003241832, 0.16221523, 0
324, 1708590733, 0.6080828, -0.4291328, -0.149349, -0.65098035, -0.041416895, 0.011359152, 0.15382099, 0
325, 1708607400, 0.6081207, -0.42910963, -0.14936161, -0.6509572, -0.021687128, 0.010862953, 0.14846516, 0
326, 1708624067, 0.608107, -0.4290823, -0.14932877, -0.65099555, 0.0021829952, 0.021676734, 0.16310883, 0
327, 1708640734, 0.60806376, -0.42905718, -0.14930364, -0.65105826, -0.0030574338, 0.044243496, 0.13754654, 0
328, 1708657401, 0.6080388, -0.42899448, -0.14933322, -0.6511162, 0.01602476, 0.031786002, 0.13771343, 0
329, 1708674068, 0.60807556, -0.42896602, -0.14939928, -0.6510855, 0.03851486, 0.031742863, 0.124648094, 0
330, 1708690735, 0.60815966, -0.42895886, -0.1494492, -0.65100014, 0.018497597, 0.010421068, 0.13686085, 0
331, 1708707402, 0.6081497, -0.42896384, -0.14941157, -0.6510148, -4.8770526E-4, -0.025268586, 0.14068508, 0
332, 1708724069, 0.60811687, -0.42896137, -0.14933515, -0.6510647, -0.01009731, -0.0074369465, 0.17995262, 0
333, 1708740736, 0.60816616, -0.42892772, -0.14929049, -0.651051, -0.038615998, 0.008211419, 0.14381504, 0
334, 1708757403, 0.60818607, -0.42887878, -0.14928176, -0.6510666, -0.046375193, 0.022748254, 0.1422596, 0
335, 1708774070, 0.60812867, -0.4288266, -0.14924002, -0.6511642, -0.026943369, 0.019756533, 0.13104153, 0
336, 1708790737, 0.6081354, -0.42875132, -0.14922445, -0.6512109, -0.013939721, 0.045511708, 0.12095356, 0
337, 1708807404, 0.6082471, -0.42866167, -0.14924191, -0.6511616, 0.015580529, 0.020123765, 0.12428284, 0
338, 1708824071, 0.6082872, -0.42859465, -0.14915766, -0.65118754, 0.038269833, -0.007026577, 0.16923523, 0
339, 1708840738, 0.60830164, -0.42856136, -0.14907455, -0.65121496, 0.02707703, 0.011500635, 0.12325001, 0
340, 1708857405, 0.608372, -0.42853957, -0.14909829, -0.6511582, -5.248643E-4, -0.010803051, 0.15355682, 0
341, 1708874072, 0.6083957, -0.4285174, -0.14913233, -0.6511429, -0.009648775, 0.01288664, 0.16392231, 0
342, 1708890739, 0.6084198, -0.4285035, -0.14916146, -0.6511229, 0.017075775, 0.031025162, 0.17211819, 0
343, 1708907406, 0.60830754, -0.42857695, -0.14914139, -0.6511841, 0.0058786143, 0.061054353, 0.13623333, 0
344, 1708924073, 0.6083006, -0.42864582, -0.1492198, -0.6511273, -0.027371118, 0.07038646, 0.14731693, 0
345, 1708940740, 0.60825163, -0.42868075, -0.14927192, -0.651138, -0.011200178, 0.022591796, 0.123705864, 0
346, 1708957407, 0.608232, -0.42867124, -0.14930026, -0.65115607, 0.011013098, -0.030955873, 0.1325922, 0
347, 1708974074, 0.60817295, -0.42865434, -0.14923094, -0.65123826, 0.01939774, -0.036785092, 0.17088413, 0
348, 1708990741, 0.60820675, -0.4286107, -0.14919458, -0.6512437, -0.012687322, -0.052761573, 0.15173912, 0
349, 1709007408, 0.60820764, -0.4285991, -0.14912426, -0.65126663, -0.0020191043, -0.013935809, 0.16858578, 0
350, 1709024075, 0.60822016, -0.42858568, -0.14909051, -0.6512715, -0.03904263, 0.009965101, 0.16344547, 0
351, 1709040742, 0.60822916, -0.42855084, -0.14911863, -0.6512797, -0.023364536, 0.02587699, 0.14448452, 0
352, 1709057409, 0.6081285, -0.42854264, -0.14905831, -0.65139294, -0.006058989, 0.03537763, 0.14497852, 0
353, 1709074076, 0.6081664, -0.42851493, -0.14908028, -0.65137076, 0.03007663, 0.015140097, 0.15362167, 0
354, 1709090743, 0.6081056, -0.42851788, -0.14900257, -0.65144324, 0.018651932, 0.01849458, 0.13178253, 0
355, 1709107410, 0.6081794, -0.42849523, -0.14897653, -0.6513953, 0.01624006, 0.011969565, 0.14584923, 0
356, 1709124077, 0.60822034, -0.42849123, -0.14895658, -0.65136415, -0.002559447, -0.022112137, 0.13358688, 0
357, 1709140744, 0.60817313, -0.42848414, -0.14889163, -0.6514276, -0.02004073, 0.004014069, 0.16598034, 0
358, 1709157411, 0.60826945, -0.42841694, -0.14893718, -0.6513716, -0.0047895475, 0.01058915, 0.1454401, 0
359, 1709174078, 0.6082486, -0.42836502, -0.14888014, -0.65143824, -0.024292562, 0.019081747, 0.15127277, 0
360, 1709190745, 0.6081443, -0.42831737, -0.14874898, -0.65159696, -0.0065728454, 0.04283961, 0.14646435, 0
361, 1709207412, 0.6081582, -0.42828673, -0.14874326, -0.6516055, 0.023806421, 0.042824637, 0.18286896, 0
362, 1709224079, 0.6081603, -0.4282975, -0.14873722, -0.65159774, -0.017732065, 0.051517725, 0.15933132, 0
363, 1709240746, 0.60816383, -0.42830473, -0.14883135, -0.6515682, -0.020698361, 0.0073960437, 0.14544487, 0
364, 1709257413, 0.60821563, -0.42830893, -0.14898904, -0.65148103, 0.015641492, -0.023182765, 0.13096046, 0
365, 1709274080, 0.6081709, -0.428323, -0.14902139, -0.651506, -0.0046548806, -0.046342283, 0.12213516, 0
366, 1709290747, 0.6082927, -0.42822483, -0.14912191, -0.6514339, -0.017640537, -0.043539207, 0.13534164, 0
367, 1709307414, 0.60836625, -0.4280676, -0.14910205, -0.6514731, 0.014146415, -0.009056745, 0.1277008, 0
368, 1709324081, 0.6084481, -0.4279341, -0.14900059, -0.65150774, 0.045057867, 0.03695675, 0.16200256, 0
369, 1709340748, 0.6085522, -0.42788702, -0.1489634, -0.65144986, 0.025410965, 0.092662215, 0.15366459, 0
370, 1709357415, 0.6085301, -0.42798984, -0.14902155, -0.6513897, -0.005575307, 0.07154091, 0.1727972, 0
371, 1709374082, 0.60853606, -0.428085, -0.14912198, -0.6512986, -0.033451732, 0.0096790055, 0.140481, 0
372, 1709390749, 0.6084937, -0.42814228, -0.1491657, -0.6512905, -0.027113685, -0.043484446, 0.14696693, 0
373, 1709407416, 0.6085524, -0.42809802, -0.14920777, -0.6512551, -0.02140863, -0.07015468, 0.1385622, 0
374, 1709424083, 0.60850286, -0.42804378, -0.14911105, -0.65135914, -0.0105257835, -0.021582188, 0.12133694, 0
375, 1709440750, 0.60849935, -0.42794144, -0.1489846, -0.65145856, -0.0023691256, 0.019419476, 0.13533497, 0
376, 1709457417, 0.6086058, -0.42781538, -0.14893547, -0.6514532, 0.012276561, 0.050689384, 0.14410114, 0
377, 1709474084, 0.6087414, -0.4277336, -0.1489551, -0.6513758, -0.001623207, 0.066818975, 0.14844036, 0
378, 1709490751, 0.6087982, -0.42771417, -0.14899631, -0.6513259, 0.006442426, 0.02921225, 0.16888714, 0
379, 1709507418, 0.60878223, -0.42774677, -0.14906295, -0.65130424, -9.14615E-4, 0.036170878, 0.16739559, 0
380, 1709524085, 0.6087466, -0.42775983, -0.1491111, -0.6513179, -0.010714037, 0.016097179, 0.15032864, 0
381, 1709540752, 0.6087667, -0.4277292, -0.14907883, -0.65132666, -0.012512367, 0.0012961517, 0.1254139, 0
382, 1709557419, 0.6087932, -0.4276336, -0.14905092, -0.65137106, -0.049098868, 0.008405428, 0.116518974, 0
383, 1709574086, 0.60879666, -0.42756736, -0.14897922, -0.6514277, -0.0070661386, -0.014839472, 0.1381073, 0
384, 1709590753, 0.6088907, -0.42745882, -0.14893968, -0.6514201, 0.00324267, -0.05321866, 0.16459751, 0
385, 1709607420, 0.60885495, -0.42737794, -0.14882988, -0.6515317, -0.03491099, 0.049183577, 0.13860416, 0
386, 1709624087, 0.60887665, -0.4272585, -0.14881901, -0.65159214, -0.015081593, 7.2664063E-4, 0.15316868, 0
387, 1709640754, 0.6089112, -0.42720625, -0.14882371, -0.6515929, 0.043654315, 0.051924966, 0.20346832, 0
388, 1709657421, 0.6089315, -0.42741367, -0.14890853, -0.65141857, 0.020083813, 0.02400194, 0.14280033, 0
389, 1709674088, 0.6088104, -0.42756432, -0.14894041, -0.65142566, 0.01455114, 0.008044008, 0.14908314, 0
390, 1709690755, 0.6088629, -0.4275982, -0.1489574, -0.6513506, 0.026164819, 0.064229354, 0.14987087, 0
391, 1709707422, 0.60888475, -0.427677, -0.14898065, -0.65127313, -0.023486406, 0.059902366, 0.13928127, 0
392, 1709724089, 0.60901994, -0.4277284, -0.14917861, -0.6510675, -0.009999411, 0.038499437, 0.16477013, 0
393, 1709740756, 0.6089447, -0.42782855, -0.14925514, -0.6510545, 0.005457963, 2.7045067E-5, 0.13387203, 0
394, 1709757423, 0.6089103, -0.42788085, -0.14931336, -0.65103906, -0.022765242, -0.020329397, 0.13255882, 0
395, 1709774090, 0.6089052, -0.4278702, -0.14932518, -0.6510482, 0.008239693, -0.04221288, 0.14062023, 0
396, 1709790757, 0.6089948, -0.42781365, -0.14930992, -0.6510049, -0.0034263977, -0.050189834, 0.1581173, 0
397, 1709807424, 0.6090087, -0.42781273, -0.14923145, -0.65101033, -0.0143656805, -0.01371699, 0.13459682, 0
398, 1709824091, 0.6089575, -0.4278398, -0.14909446, -0.65107185, -0.022777535, 0.008455942, 0.15615177, 0
399, 1709840758, 0.6089734, -0.42784548, -0.1489873, -0.651078, -0.019498823, 0.006204049, 0.12441158, 0
400, 1709857425, 0.60897964, -0.4278022, -0.1488456, -0.65113306, -0.031448215, -0.0020797881, 0.115231514, 0
401, 1709874092, 0.6090756, -0.42767277, -0.1487145, -0.6511581, -0.0034190777, -0.054233406, 0.14007854, 0
402, 1709890759, 0.609235, -0.42750472, -0.14856146, -0.6511545, 0.013854562, -0.04323031, 0.15965271, 0
403, 1709907426, 0.609321, -0.42735648, -0.14824489, -0.6512434, -0.0033860537, -0.01795569, 0.14048767, 0
404, 1709924093, 0.60934824, -0.42720583, -0.14790082, -0.65139484, -0.027498798, 0.00900042, 0.15843105, 0
405, 1709940760, 0.6093922, -0.4270083, -0.14763767, -0.6515428, -0.04954377, 0.027419228, 0.20002365, 0
406, 1709957427, 0.6093279, -0.42676362, -0.14743693, -0.6518088, -0.070943624, 0.06428568, 0.15653896, 0
407, 1709974094, 0.6094076, -0.42646232, -0.14753985, -0.6519082, -0.035234135, 0.08190096, 0.16590595, 0
408, 1709990761, 0.6093805, -0.42620608, -0.14766917, -0.65207183, 0.04425372, 0.10624621, 0.13754177, 0
409, 1710007428, 0.6091772, -0.42606992, -0.14772955, -0.65233725, 0.05567691, 0.09885665, 0.12961388, 0
410, 1710024095, 0.60919976, -0.42596915, -0.14798276, -0.65232444, 0.04644169, 0.038292464, 0.14058304, 0
411, 1710040762, 0.6090372, -0.42599738, -0.14810981, -0.65242887, -0.0033853832, -0.04768537, 0.16058445, 0
412, 1710057429, 0.6091857, -0.42592987, -0.14838164, -0.6522726, -0.039017037, -0.099080615, 0.14017296, 0
413, 1710074096, 0.60917455, -0.42580584, -0.14841747, -0.6523558, -0.06862781, -0.16865483, 0.11901474, 0
414, 1710090763, 0.6093137, -0.42543304, -0.14824115, -0.6525092, -0.052569576, -0.14848368, 0.120259285, 0
415, 1710107430, 0.6094986, -0.42497525, -0.14803188, -0.6526821, -0.020424837, -0.0990567, 0.14866638, 0
416, 1710124097, 0.6094589, -0.4246079, -0.14769375, -0.65303504, -0.007817533, 0.0052006994, 0.1650238, 0
417, 1710140764, 0.6092783, -0.42438948, -0.14735797, -0.65342116, -0.044197563, 0.022279995, 0.1719656, 0
418, 1710157431, 0.609085, -0.42412457, -0.14720178, -0.6538086, -0.11251402, 0.0535993, 0.14935589, 0
419, 1710174098, 0.6086805, -0.42371723, -0.14717723, -0.65445447, -0.10551521, 0.12056468, 0.12803078, 0
420, 1710190765, 0.60849375, -0.4233526, -0.14733548, -0.6548285, 0.07568311, 0.058495354, 0.21206379, 0
421, 1710207432, 0.6084372, -0.42317212, -0.14749765, -0.6549612, 0.11324865, 0.06061716, 0.13961506, 0
422, 1710224099, 0.6081097, -0.423104, -0.14752351, -0.6553034, 0.049989734, 0.079613976, 0.08219147, 0
423, 1710240766, 0.6076235, -0.42302895, -0.14749874, -0.6558082, 0.04469538, 0.012617977, 0.15993881, 0
424, 1710257433, 0.6077008, -0.4227573, -0.14759518, -0.6558899, 0.07266864, -0.070531525, 0.16502953, 0
425, 1710274100, 0.6079251, -0.4224717, -0.14755726, -0.65587467, 0.047568362, -0.03745697, 0.20154572, 0
426, 1710290767, 0.60823566, -0.42211744, -0.14759059, -0.6558073, -0.01961723, 0.10764675, 0.119395256, 0
427, 1710307434, 0.6084341, -0.42181194, -0.1476991, -0.6557956, 0.0017578177, 0.15253463, 0.10503292, 0
428, 1710324101, 0.60882795, -0.4215473, -0.1479803, -0.65553683, 0.017318007, 0.1124943, 0.1500225, 0
429, 1710340768, 0.60864705, -0.42149314, -0.14789018, -0.6557597, 0.008513274, 0.062417112, 0.1494484, 0
430, 1710357435, 0.6088075, -0.42137504, -0.14798717, -0.6556648, -0.018225973, -0.0067988173, 0.16190624, 0
431, 1710374102, 0.60919255, -0.4211907, -0.14821331, -0.65537447, -0.04387526, -0.030591324, 0.16867161, 0
432, 1710390769, 0.609395, -0.42103556, -0.14831007, -0.6552639, -0.03353784, -0.037038557, 0.1571579, 0
433, 1710407436, 0.6095476, -0.42088446, -0.14829476, -0.6552227, -0.0050934693, -0.029194815, 0.13994217, 0
434, 1710424103, 0.6096381, -0.42074227, -0.14821169, -0.6552487, -0.015950164, -0.0071620257, 0.1344719, 0
435, 1710440770, 0.6098564, -0.42054042, -0.14813635, -0.65519196, 0.0062951306, -0.013480066, 0.13887691, 0
436, 1710457437, 0.6097335, -0.42044958, -0.14782386, -0.6554352, 0.040784575, 0.0142114, 0.16493988, 0
437, 1710474104, 0.6096589, -0.42045382, -0.14757925, -0.655557, 0.0058878344, 0.06423941, 0.13874435, 0
438, 1710490771, 0.6094707, -0.4204952, -0.14722447, -0.6557852, 0.0018140312, -0.0021524297, 0.17409325, 0
439, 1710507438, 0.60932976, -0.4204943, -0.14683364, -0.65600437, -0.038054198, -0.00961061, 0.13421822, 0
440, 1710524105, 0.6091447, -0.42060423, -0.14641452, -0.6561996, 0.03942372, -0.017987428, 0.24141598, 0
441, 1710540772, 0.60874563, -0.42090678, -0.14606383, -0.6564539, 0.014482299, 0.010135195, 0.19905186, 0
442, 1710557439, 0.60821825, -0.42120212, -0.14532141, -0.65691805, 0.015210336, -0.049197882, 0.05918789, 0
443, 1710574106, 0.60734576, -0.42149997, -0.14423035, -0.657774, -0.06292873, -0.019414112, 0.06365013, 0
444, 1710590773, 0.6066328, -0.421566, -0.14318281, -0.658618, -0.11904602, -0.06781986, 0.14643764, 0
445, 1710607440, 0.6061973, -0.42134035, -0.1421931, -0.6593773, -0.071856394, -0.11611319, 0.19233418, 0
446, 1710624107, 0.60610294, -0.4210291, -0.14157449, -0.65979594, -0.013921058, -0.051401276, 0.23446846, 0
447, 1710640774, 0.6061023, -0.42075017, -0.14132862, -0.660027, -0.036427416, 0.08858467, 0.13476276, 0
448, 1710657441, 0.6057338, -0.4205183, -0.14105304, -0.66057175, -0.033566784, 0.02867716, 0.15917397, 0
449, 1710674108, 0.6054988, -0.4200956, -0.14066024, -0.66113967, -0.0584858, -0.031468164, 0.13500595, 0
450, 1710690775, 0.6051499, -0.4195548, -0.1400018, -0.66194165, -0.032253813, -0.10531126, 0.12836075, 0
451, 1710707442, 0.60489976, -0.41885537, -0.13917625, -0.6627868, 0.050816286, -0.11109264, 0.15668297, 0
452, 1710724109, 0.604659, -0.4182715, -0.13823761, -0.66357124, 0.13026541, 0.0946707, 0.20464325, 0
453, 1710740776, 0.604169, -0.41801926, -0.13722531, -0.6643862, 0.08131893, 0.19081435, 0.18368244, 0
454, 1710757443, 0.6035286, -0.41797885, -0.13634308, -0.66517484, -0.025345698, 0.19876605, 0.06754398, 0
455, 1710774110, 0.60295403, -0.41780305, -0.1357036, -0.6659368, -0.056307662, 0.07941549, 0.09467125, 0
457, 1710807444, 0.6023842, -0.4168137, -0.13445432, -0.66732436, 0.0074641034, -0.038322862, 0.10446358, 0
458, 1710824111, 0.602324, -0.4160358, -0.13372888, -0.6680096, -0.06966463, -0.09358957, 0.07664585, 0
459, 1710840778, 0.60240906, -0.4152556, -0.13293956, -0.6685755, -0.0051309634, -0.1334768, 0.30465508, 0
460, 1710857445, 0.60265726, -0.41446638, -0.13226156, -0.6689761, 2.7419452E-4, 0.061886266, 0.24962807, 0
461, 1710874112, 0.60285467, -0.413737, -0.131999, -0.6693014, -0.034514256, 0.17956829, 0.23619843, 0
462, 1710890779, 0.60286695, -0.41329, -0.1320703, -0.66955245, 0.070349246, 0.25032467, 0.25049877, 0
463, 1710907446, 0.60279953, -0.41307062, -0.13222808, -0.6697173, 0.058517925, 0.19427568, 0.14288044, 0
464, 1710924113, 0.60259837, -0.4129973, -0.13266133, -0.66985786, -0.037296433, 0.086897366, 0.11460304, 0
465, 1710940780, 0.60238767, -0.41283897, -0.13304129, -0.6700695, 0.018819064, -0.0068877754, 0.12860298, 0
466, 1710957447, 0.60208344, -0.41280484, -0.13340776, -0.6702912, 0.0948684, -0.06005659, 0.1902113, 0
467, 1710974114, 0.60179275, -0.41284266, -0.13346031, -0.6705184, 0.114741944, -0.009312667, 0.19731426, 0
468, 1710990781, 0.6014656, -0.4129217, -0.13350216, -0.6707549, -0.04862675, 0.11345495, 0.09441757, 0
469, 1711007448, 0.60115063, -0.41291678, -0.13354675, -0.67103136, -0.050469674, 0.008441414, 0.09527016, 0
470, 1711024115, 0.6009889, -0.4127522, -0.13354225, -0.6712782, 2.7670903E-4, -0.12511942, 0.16610813, 0
471, 1711040782, 0.60088325, -0.41247952, -0.13340709, -0.67156726, -0.0035581586, -0.05139569, 0.1440897, 0
472, 1711057449, 0.6008047, -0.4121356, -0.13318141, -0.67189354, -0.012288631, -0.008856477, 0.16520691, 0
473, 1711074116, 0.60069555, -0.41181886, -0.13298069, -0.6722249, 0.03509824, 0.095275305, 0.1639719, 0
475, 1711107450, 0.60028553, -0.41177586, -0.13247263, -0.67271775, 0.029559365, 0.06219248, 0.13385582, 0
476, 1711124117, 0.6000139, -0.4119775, -0.13210459, -0.67290896, 5.733107E-5, -0.047424085, 0.12190056, 0
477, 1711140784, 0.5998148, -0.41202217, -0.13155618, -0.6731665, -0.02868895, -0.09390472, 0.109583855, 0
478, 1711157451, 0.5997224, -0.41191283, -0.13084686, -0.6734539, 0.035283867, -0.13916633, 0.14331627, 0
479, 1711174118, 0.5997289, -0.4116818, -0.12979542, -0.6737927, 0.05304823, -0.073225304, 0.1472454, 0
480, 1711190785, 0.59980154, -0.41145414, -0.12867907, -0.67408127, 0.011049642, 0.027307471, 0.11366272, 0
481, 1711207452, 0.59995437, -0.41122395, -0.12765111, -0.67428106, 0.040098168, 0.016443402, 0.1589346, 0
482, 1711224119, 0.60019004, -0.41100135, -0.12652774, -0.6744186, 0.029745216, 0.024900684, 0.13438225, 0
483, 1711240786, 0.60046166, -0.41095945, -0.1253881, -0.6744154, 0.05599592, -0.016120424, 0.15909767, 0
484, 1711257453, 0.6007204, -0.41100916, -0.12429709, -0.67435676, 0.042078327, 0.053028896, 0.20391464, 0
485, 1711274120, 0.6009247, -0.41111693, -0.123347074, -0.6742833, 0.007170296, 0.20547144, 0.24875736, 0
486, 1711290787, 0.60090846, -0.41137704, -0.12262679, -0.67427045, -0.048942354, 0.38262847, 0.22267151, 0
487, 1711307454, 0.60076815, -0.41173232, -0.12242849, -0.6742147, -0.10499571, 0.17997889, 0.197752, 0
488, 1711324121, 0.60069895, -0.41179803, -0.1225868, -0.67420757, -0.08467794, 1.1488566E-4, 0.13138866, 0
489, 1711340788, 0.60092133, -0.41150388, -0.12225819, -0.6742486, -0.027285066, -0.10364027, 0.41870308, 0
490, 1711357455, 0.6008432, -0.41192308, -0.12329627, -0.67387307, 0.43003178, -0.37527782, -0.7125406, 0
491, 1711374122, 0.6013445, -0.4116508, -0.12230375, -0.67377317, -0.06995118, 0.02552965, 0.51551056, 0
492, 1711390789, 0.6015719, -0.4115303, -0.12208561, -0.67368335, -0.1145315, 0.25304347, 0.14032269, 0
493, 1711407456, 0.60163206, -0.41162512, -0.12209157, -0.6735706, -0.008789927, 0.072446585, 0.316267, 0
494, 1711424123, 0.6013969, -0.41181484, -0.12250445, -0.67358965, -0.19725901, 0.273663, 0.2251997, 0
495, 1711440790, 0.60103214, -0.41208306, -0.123253934, -0.6736145, -0.08000021, 0.15262069, 0.19195843, 0
496, 1711457457, 0.6006055, -0.4123, -0.123865806, -0.67375016, -0.0023301784, 0.0010712976, 0.045401573, 0
497, 1711474124, 0.60016346, -0.41244677, -0.123897746, -0.6740482, 0.07947584, -0.22629279, 0.046717644, 0
498, 1711490791, 0.5998244, -0.4123911, -0.12326127, -0.67450064, 0.048169166, -0.22801071, 0.07514763, 0
499, 1711507458, 0.5996226, -0.41233978, -0.12262885, -0.6748266, 0.05699966, -0.14555745, 0.26832294, 0
500, 1711524125, 0.59953326, -0.41231138, -0.12239079, -0.67496645, -0.1213468, 0.12501058, 0.23068142, 0
501, 1711540792, 0.5994956, -0.41222683, -0.122668155, -0.67500114, -0.051321816, 0.23548253, 0.25771427, 0
502, 1711557459, 0.59941685, -0.4122966, -0.12325004, -0.6749226, 0.008373745, 0.27740327, 0.16279602, 0
503, 1711574126, 0.5992957, -0.41252056, -0.12395551, -0.67476404, 0.07031444, 0.14959052, 0.14740467, 0
504, 1711590793, 0.5991288, -0.41299525, -0.12463982, -0.6744959, 0.054351702, 0.015090701, 0.0992403, 0
505, 1711607460, 0.599037, -0.41341478, -0.12494575, -0.6742638, 0.075549394, -0.08952208, 0.05608082, 0
506, 1711624127, 0.5990231, -0.41386196, -0.12454287, -0.6740763, 0.12769116, -0.13858473, 0.037651062, 0
507, 1711640794, 0.59914786, -0.4142455, -0.123609886, -0.67390144, 0.051160663, -0.20945331, 0.0870924, 0
508, 1711657461, 0.59938735, -0.41441903, -0.122396976, -0.6738031, 0.014098583, -0.19002423, 0.14112854, 0
509, 1711674128, 0.5996665, -0.41444117, -0.12104458, -0.6737855, -0.035373215, -0.066446155, 0.13450909, 0
510, 1711690795, 0.5999387, -0.41434407, -0.11970247, -0.67384285, -0.044067033, 0.043391015, 0.1801281, 0
511, 1711707462, 0.6001617, -0.4144835, -0.11836216, -0.67379534, 0.07388858, 0.1084762, 0.25668716, 0
512, 1711724129, 0.6002738, -0.4149791, -0.117046714, -0.67362005, 0.01916104, 0.15659206, 0.2063961, 0
513, 1711740796, 0.60024685, -0.4156372, -0.115978345, -0.6734233, -0.062405992, 0.091086, 0.19664574, 0
514, 1711757463, 0.600184, -0.41622218, -0.11509053, -0.6732701, -0.019492676, 0.015895795, 0.1866169, 0
515, 1711774130, 0.6001832, -0.4168388, -0.11429274, -0.673025, 0.06924509, 0.018435571, 0.20872116, 0
516, 1711790797, 0.6002554, -0.41771695, -0.11308, -0.6726211, 0.18985325, 0.021948079, 0.09078026, 0
517, 1711807464, 0.6004524, -0.41882262, -0.111534655, -0.6720155, 0.18661158, 0.009443199, 0.09611988, 0
518, 1711824131, 0.6008147, -0.42000625, -0.10976284, -0.6712441, 0.12735824, -0.07465914, 0.1458044, 0
519, 1711840798, 0.6013066, -0.4211526, -0.10806824, -0.67035997, 0.021938859, 0.006983439, 0.2244854, 0
520, 1711857465, 0.60189825, -0.4224242, -0.10661498, -0.6692605, 0.079308935, 0.12961762, 0.31870365, 0
521, 1711874132, 0.60234964, -0.42404282, -0.10567325, -0.66797906, 0.046441857, 0.25954303, 0.317914, 0
522, 1711890799, 0.60275364, -0.4261231, -0.10485629, -0.6664177, 0.22248401, 0.05739075, 0.5209484, 0
523, 1711907466, 0.6032112, -0.42870393, -0.10358482, -0.6645445, 0.3907747, 0.102968395, 0.46405315, 0
524, 1711924133, 0.60331947, -0.43210045, -0.10272101, -0.66237706, 0.3350971, 0.465974, 0.46242905, 0
525, 1711940800, 0.6028319, -0.43641368, -0.10273677, -0.6599866, 0.36607936, 0.44206905, 0.90390587, 0
526, 1711957467, 0.6019341, -0.44105053, -0.10392771, -0.65753245, 0.4787295, -0.13575283, 1.2339268, 0
527, 1711974134, 0.6014343, -0.44512656, -0.10426393, -0.6551857, 0.64898497, -0.6411442, 1.5841837, 0
528, 1711990801, 0.60171664, -0.44866154, -0.10358063, -0.6526187, 0.60652447, -0.90652275, 1.7263746, 0
529, 1712007468, 0.60282505, -0.451475, -0.101470776, -0.6499816, 0.58298695, -1.0208657, 1.9218626, 0
530, 1712024135, 0.60490274, -0.4540661, -0.098058164, -0.6467621, 0.49520093, -1.3170838, 1.9690905, 0
531, 1712040802, 0.60788655, -0.45580807, -0.092210285, -0.6435917, 0.42577955, -1.2196643, 2.0122194, 0
532, 1712057469, 0.6113304, -0.45741102, -0.08531608, -0.64013404, 0.20858207, -0.61735797, 1.4840565, 0
533, 1712074136, 0.6149787, -0.45945567, -0.07859045, -0.6360233, 0.26329827, -0.35041088, 1.2914114, 0
534, 1712090803, 0.618592, -0.4623916, -0.072133146, -0.6311379, 0.27970707, -0.13747947, 1.0361853, 0
535, 1712107470, 0.62190396, -0.46618465, -0.06640668, -0.6256976, 0.18247402, -4.8502312E-5, 0.9372263, 0
536, 1712124137, 0.62493, -0.47068962, -0.062003706, -0.6197334, -0.026467314, -0.021771727, 0.82703876, 0
537, 1712140804, 0.6277498, -0.47529185, -0.05852035, -0.61368006, 0.04233911, -0.28299958, 0.8600006, 0
538, 1712157471, 0.63060486, -0.47956878, -0.054901868, -0.60773116, 0.26621535, -0.46529496, 0.8480606, 0
539, 1712174138, 0.63399005, -0.48335, -0.050592273, -0.6015563, 0.42053026, -0.6066991, 0.67223644, 0
540, 1712190805, 0.6377456, -0.48705256, -0.04588597, -0.59494114, 0.63853776, -0.57683283, 0.53594494, 0
541, 1712207472, 0.64175504, -0.49069196, -0.04071439, -0.58797467, 0.6684353, -0.6352316, 0.56735134, 0
542, 1712224139, 0.64608836, -0.4939537, -0.034537207, -0.58085006, 0.58008605, -0.49909282, 0.444849, 0
543, 1712240806, 0.65054715, -0.49708718, -0.02793802, -0.57350874, 0.55297226, -0.2175065, 0.112407684, 0
544, 1712257473, 0.6548204, -0.5004503, -0.022006797, -0.56592894, 0.28335676, 0.011330989, -0.108727455, 0
545, 1712274140, 0.65869415, -0.5040968, -0.017092878, -0.5583157, 0.12048943, 0.13084494, -0.16201305, 0
546, 1712290807, 0.66217697, -0.5079489, -0.012836624, -0.55076754, 0.33937177, 0.016852876, -0.08271694, 0
547, 1712307474, 0.665649, -0.5117451, -0.008239346, -0.54310256, 0.47532007, -0.17368677, -0.17763901, 0
548, 1712324141, 0.66923296, -0.5153867, -0.0031427294, -0.53525114, 0.4668608, -0.14480019, -0.17730808, 0
549, 1712340808, 0.67277867, -0.5189396, 0.00208902, -0.5273202, 0.617149, -0.16022928, -0.040756226, 0
550, 1712357475, 0.6763879, -0.52254635, 0.007521999, -0.5190261, 0.6418454, -0.058750156, 0.048909187, 0
551, 1712374142, 0.6799801, -0.5261981, 0.013253985, -0.5104577, 0.8467887, -0.104414746, 0.23245716, 0
552, 1712390809, 0.68330526, -0.53006446, 0.019531462, -0.50174123, 0.8792256, 0.022634262, 0.24092007, 0
553, 1712407476, 0.6863507, -0.53426033, 0.02600262, -0.49276003, 0.78571725, 0.05704833, 0.11202812, 0
554, 1712424143, 0.6890922, -0.5386512, 0.03252586, -0.4836829, 0.58744186, 0.10039956, 0.09937954, 0
555, 1712440810, 0.69158566, -0.54311705, 0.038745735, -0.47458628, 0.25705218, 0.27841532, -0.03327465, 0
556, 1712457477, 0.6938579, -0.5476594, 0.04454707, -0.4654524, -0.06977119, 0.3903734, -0.27145195, 0
557, 1712474144, 0.6958869, -0.55227894, 0.04986041, -0.45633712, -0.35985306, 0.4855515, -0.5052328, 0
558, 1712490811, 0.6977235, -0.5567256, 0.054744393, -0.44748375, -0.6972585, 0.44492197, -0.5952215, 0
559, 1712507478, 0.69936347, -0.5606256, 0.05914893, -0.43942162, -0.8774769, 0.39493486, -0.56164837, 0
560, 1712524145, 0.7008272, -0.563835, 0.06296248, -0.43239737, -0.9438983, 0.30386966, -0.5822382, 0
561, 1712540812, 0.70218223, -0.56647676, 0.06632032, -0.42619956, -0.9119476, 0.34471712, -0.6121931, 0
562, 1712557479, 0.7033844, -0.5688302, 0.06922731, -0.42058316, -0.8197297, 0.41484094, -0.6108799, 0
563, 1712574146, 0.70431757, -0.57137406, 0.071536474, -0.41515192, -0.7657138, 0.46175653, -0.61020565, 0
564, 1712590813, 0.7052326, -0.5741259, 0.073478304, -0.40942344, -0.64370066, 0.41471064, -0.5167799, 0
565, 1712607480, 0.70621765, -0.5770411, 0.075188935, -0.4032706, -0.41608813, 0.31231958, -0.46505547, 0
566, 1712624147, 0.7072655, -0.57987165, 0.077427424, -0.39689976, -0.14911108, 0.18449788, -0.40947914, 0
567, 1712640814, 0.7081847, -0.5825577, 0.08045036, -0.3906774, -0.020468647, 0.09575429, -0.384367, 0
568, 1712657481, 0.7087808, -0.5850799, 0.08463474, -0.38490024, 0.16540244, 0.08560457, -0.26982975, 0
569, 1712674148, 0.7090691, -0.58759254, 0.08985753, -0.37931764, 0.04827539, 0.2797247, -0.19854355, 0
570, 1712690815, 0.7089816, -0.5903244, 0.094842404, -0.3739885, -0.037121926, 0.34758186, -0.14513683, 0
571, 1712707482, 0.7085311, -0.59331965, 0.099062145, -0.36897454, -0.26602137, 0.41504657, -0.063884735, 0
572, 1712724149, 0.70798194, -0.59633684, 0.10231401, -0.36424726, -0.34304672, 0.3444348, -0.18181038, 0
573, 1712740816, 0.7074722, -0.59907407, 0.105013505, -0.35995242, -0.2921957, 0.14157668, -0.31301785, 0
574, 1712757483, 0.7068556, -0.60151386, 0.10773471, -0.3562719, -0.27941912, 0.08615441, -0.51839733, 0
575, 1712774150, 0.70612824, -0.6038124, 0.11026013, -0.35303882, -0.38676727, 0.16240183, -0.70052814, 0
576, 1712790817, 0.7054527, -0.60605824, 0.11292541, -0.34968296, -0.44300222, 0.10890244, -0.8665247, 0
577, 1712807484, 0.70490855, -0.6081912, 0.11557729, -0.34619275, -0.6316993, 0.098425716, -0.81163025, 0
578, 1712824151, 0.7043984, -0.6101529, 0.11767733, -0.34305757, -0.85206616, 0.09852049, -0.70189667, 0
579, 1712840818, 0.70408726, -0.6117104, 0.11907222, -0.3404314, -0.9632481, 0.09111372, -0.7125721, 0
580, 1712857485, 0.7040723, -0.61268896, 0.11992416, -0.33839732, -0.9806814, -0.024052229, -0.67167187, 0
581, 1712874152, 0.70424616, -0.612965, 0.12049849, -0.3373298, -0.93092597, -0.13328882, -0.5594492, 0
582, 1712890819, 0.70453095, -0.61257523, 0.1211436, -0.3372123, -0.86861837, -0.097077936, -0.49662495, 0
583, 1712907486, 0.7048212, -0.6117399, 0.121990696, -0.33781636, -0.83290184, 0.09819416, -0.5042639, 0
584, 1712924153, 0.70519006, -0.6107558, 0.12268668, -0.33857393, -0.94446516, 0.30903795, -0.47762585, 0
586, 1712957487, 0.70606565, -0.60892653, 0.12301973, -0.33992085, -0.7330552, 0.40936577, -0.28912163, 0
587, 1712974154, 0.7063202, -0.6081311, 0.12325817, -0.34072852, -0.670226, 0.37629122, -0.25739384, 0
588, 1712990821, 0.7064545, -0.6073394, 0.12341353, -0.3418043, -0.7879444, 0.35224658, -0.1495924, 0
589, 1713007488, 0.70658, -0.6064164, 0.122926205, -0.34335566, -0.88911736, 0.34783533, -0.017792702, 0
590, 1713024155, 0.706645, -0.6053496, 0.12183985, -0.34548518, -0.82884884, 0.37727645, -0.03538227, 0
591, 1713040822, 0.7066464, -0.6041915, 0.12050336, -0.34796932, -0.74661756, 0.34382015, -0.15207958, 0
592, 1713057489, 0.70649564, -0.6030455, 0.11918711, -0.35070583, -0.6672443, 0.3107818, -0.23923111, 0
593, 1713074156, 0.70617145, -0.6020001, 0.11780804, -0.3536088, -0.6868909, 0.35319203, -0.29065037, 0
594, 1713090823, 0.70575166, -0.60099816, 0.1160738, -0.35671106, -0.65299696, 0.36640257, -0.21627045, 0
595, 1713107490, 0.70534503, -0.59987116, 0.11381112, -0.36012504, -0.6117256, 0.31495747, -0.14887714, 0
596, 1713124157, 0.7049694, -0.5984532, 0.11126945, -0.36399314, -0.48090345, 0.29516405, -0.19148827, 0
597, 1713140824, 0.70454854, -0.5968528, 0.10868567, -0.3681925, -0.41228044, 0.3370678, -0.33131027, 0
598, 1713157491, 0.70402193, -0.5952383, 0.10608684, -0.37254548, -0.44753915, 0.48223388, -0.3242588, 0
599, 1713174158, 0.7033133, -0.59373134, 0.10316763, -0.37708136, -0.5976483, 0.58920807, -0.3385687, 0
600, 1713190825, 0.70237136, -0.592393, 0.0993902, -0.38192484, -0.7800051, 0.67564344, -0.4575615, 0
601, 1713207492, 0.70121646, -0.59119076, 0.09441264, -0.38713756, -0.92734605, 0.6277594, -0.5847349, 0
602, 1713224159, 0.6998795, -0.58990294, 0.08851616, -0.39287177, -0.9609998, 0.52246267, -0.69481564, 0
604, 1713257493, 0.6966381, -0.58713335, 0.07493, -0.4054077, -0.8950155, 0.32998312, -1.0762491, 0
605, 1713274160, 0.6946413, -0.58570725, 0.06767168, -0.41211787, -0.79976076, 0.21636702, -1.1613235, 0
610, 1713357495, 0.6821786, -0.5739519, 0.031401325, -0.45191354, -0.4130436, 0.1917055, -1.0824804, 0
611, 1713374162, 0.6793024, -0.5710679, 0.023067463, -0.46032336, -0.06593248, 0.047367312, -1.0513258, 0
612, 1713390829, 0.67624605, -0.5681197, 0.014809862, -0.46873462, 0.061069004, -0.081904985, -1.0970001, 0
613, 1713407496, 0.6729553, -0.56501013, 0.006773993, -0.47733557, 0.14859639, -0.07941147, -0.9563036, 0
614, 1713424163, 0.6695758, -0.5617138, -0.0010593389, -0.4859475, 0.22701356, -0.060492218, -0.8072052, 0
615, 1713440830, 0.666181, -0.55826104, -0.008863179, -0.494438, 0.19902502, 0.014510908, -0.7228899, 0
616, 1713457497, 0.6628207, -0.55461025, -0.0168197, -0.50278586, 0.21016319, -0.019350635, -0.58162117, 0
617, 1713474164, 0.6594895, -0.5505718, -0.024661647, -0.51121056, 0.2834524, -0.07739807, -0.3569107, 0
618, 1713490831, 0.6560779, -0.54615974, -0.0321991, -0.51984096, 0.53599983, -0.10145946, -0.24340725, 0
619, 1713507498, 0.65254265, -0.5415826, -0.039281774, -0.52852005, 0.7236019, -0.15910569, -0.27648354, 0
620, 1713524165, 0.64901227, -0.53685826, -0.045551494, -0.53711414, 0.85331035, -0.35194463, -0.068660736, 0
621, 1713540832, 0.64569896, -0.53185683, -0.051004827, -0.5455273, 0.6315771, -0.4162808, 0.20233154, 0
622, 1713557499, 0.64260256, -0.52654904, -0.056292083, -0.5537502, 0.5594725, -0.3843766, 0.45681286, 0
623, 1713574166, 0.63968724, -0.52123374, -0.061593927, -0.5615352, 0.8538155, -0.40026298, 0.67262936, 0
624, 1713590833, 0.63710946, -0.51614803, -0.06638721, -0.5685735, 1.0770955, -0.48340243, 0.88180923, 0
625, 1713607500, 0.63469374, -0.51135343, -0.07033523, -0.5750953, 1.1852901, -0.5712528, 1.1868029, 0
626, 1713624167, 0.63220435, -0.5067577, -0.07315677, -0.5815174, 1.0246391, -0.62931013, 1.3483257, 0
627, 1713640834, 0.62955326, -0.50248873, -0.075847745, -0.58772004, 0.72742236, -0.5617951, 1.3803587, 0
629, 1713674168, 0.6242257, -0.49472842, -0.08341671, -0.59885556, 0.49850747, -0.48974013, 1.663476, 0
630, 1713690835, 0.62160534, -0.49083674, -0.08815707, -0.60408163, 0.7531066, -0.71992207, 1.9773445, 0
631, 1713707502, 0.6193985, -0.486733, -0.09178044, -0.6091084, 0.9214389, -0.92487156, 2.020093, 0
632, 1713724169, 0.6176602, -0.48263672, -0.093952954, -0.6137839, 0.8793666, -0.79312366, 1.8908615, 0
633, 1713740836, 0.61612236, -0.47881576, -0.09535545, -0.61809075, 0.71702814, -0.55447197, 1.6700678, 0
634, 1713757503, 0.61477387, -0.475534, -0.09634164, -0.6218031, 0.5969396, -0.34304434, 1.4630499, 0
635, 1713774170, 0.61365956, -0.4728197, -0.097133204, -0.624843, 0.4493021, -0.31284347, 1.3687916, 0
636, 1713790837, 0.61258954, -0.47054702, -0.09793695, -0.6274776, 0.24036925, -0.20341556, 1.2807722, 0
637, 1713807504, 0.6114145, -0.46855235, -0.09890693, -0.62995917, 0.062017918, -0.074735135, 1.17416, 0
640, 1713857505, 0.6072628, -0.46470928, -0.10271249, -0.636182, 0.029923579, 0.28107, 0.5253887, 0
642, 1713890839, 0.6037849, -0.4636512, -0.10456696, -0.639951, -0.12372112, 0.27263528, 0.26921272, 0
643, 1713907506, 0.6017159, -0.46281067, -0.10510632, -0.64241505, -0.2363582, 0.30115667, 0.15731907, 0
646, 1713957507, 0.59674966, -0.45928425, -0.106256455, -0.6493516, 0.3153746, -0.36945686, 0.67441463, 0
647, 1713974174, 0.5963929, -0.45811522, -0.104931444, -0.6507191, 0.41786763, -0.4879471, 0.87733555, 0
648, 1713990841, 0.59641826, -0.45720962, -0.1029856, -0.6516433, 0.42883325, -0.7611685, 0.9962206, 0
649, 1714007508, 0.59663165, -0.4564425, -0.100748345, -0.6523349, 0.22066545, -0.6039318, 0.8752432, 0
650, 1714024175, 0.59684914, -0.45573926, -0.09884238, -0.6529187, -0.017253803, -0.31208465, 0.54331684, 0
651, 1714040842, 0.5969605, -0.45481578, -0.09731553, -0.6536898, -0.1616269, -0.015206927, 0.2685976, 0
653, 1714074176, 0.5965111, -0.45170987, -0.09530316, -0.656544, -0.23115699, 0.24923952, -0.013814926, 0
654, 1714090843, 0.59551334, -0.4506517, -0.09510604, -0.65820354, 0.17462961, 1.149691, -0.002790451, 0
655, 1714107510, 0.59399253, -0.45048302, -0.09570821, -0.65960443, 0.19235837, 0.2984926, 0.42257977, 0
656, 1714124177, 0.59252197, -0.4506545, -0.09609488, -0.6607529, 0.317669, 0.18147263, 0.14191341, 0
657, 1714140844, 0.59115803, -0.4512715, -0.09629064, -0.6615243, 0.28003705, -0.21030937, -0.08690739, 0
658, 1714157511, 0.5898996, -0.45198765, -0.09584589, -0.6622229, 0.1172554, -0.3395618, -0.030891418, 0
659, 1714174178, 0.58889836, -0.45261994, -0.095106, -0.6627887, -0.06822364, -0.37410435, 0.06096649, 0
660, 1714190845, 0.5882287, -0.45287758, -0.09416955, -0.6633409, -0.11301715, -0.28182772, 0.21333885, 0
661, 1714207512, 0.5877757, -0.45275706, -0.093373775, -0.6639368, -0.1356903, -0.1642438, 0.31143475, 0
662, 1714224179, 0.58750504, -0.45186016, -0.09232343, -0.6649338, -0.25469255, -0.009326972, 0.35788918, 0
663, 1714240846, 0.5873089, -0.45034957, -0.09137557, -0.6662613, -0.26686373, 0.12187714, 0.304945, 0
664, 1714257513, 0.58721644, -0.4485909, -0.0906208, -0.6676311, -0.13881959, 0.034044378, 0.25591373, 0
665, 1714274180, 0.5873135, -0.44696274, -0.0897916, -0.66874874, 0.15801567, 0.06863144, 0.24699306, 0
666, 1714290847, 0.5874126, -0.44574517, -0.08901551, -0.66957754, 0.13800824, 0.13994102, 0.023440361, 0
667, 1714307514, 0.58758616, -0.44465533, -0.08847181, -0.6702216, 0.1047651, 0.029052885, 0.05880356, 0
668, 1714324181, 0.58776426, -0.44374067, -0.08793106, -0.6707426, 0.15540263, 0.06091913, 0.03563404, 0
669, 1714340848, 0.58800024, -0.44272205, -0.08704127, -0.6713249, 0.1509839, 0.096274406, 0.14323139, 0
670, 1714357515, 0.58817005, -0.44179967, -0.086314164, -0.6718773, 0.07136517, 0.15030465, 0.20671558, 0
671, 1714374182, 0.58824307, -0.44097373, -0.085999414, -0.67239594, -0.016636796, 0.18668585, 0.22076416, 0
672, 1714390849, 0.58813155, -0.4403875, -0.08639021, -0.67282754, -0.05103449, 0.107152335, 0.2524786, 0
673, 1714407516, 0.5877926, -0.44003823, -0.08720394, -0.6732472, -0.0030731354, 0.004808658, 0.23651028, 0
674, 1714424183, 0.5875065, -0.43977863, -0.0880058, -0.67356217, 0.0034275712, -0.07392155, 0.1740694, 0
675, 1714440850, 0.58730847, -0.4396012, -0.08873994, -0.6737544, 0.042634483, 0.04711452, 0.09765625, 0
676, 1714457517, 0.5871915, -0.43956807, -0.08930952, -0.67380244, 0.055366673, 0.10319056, 0.06052971, 0
677, 1714474184, 0.58722585, -0.43944466, -0.089475535, -0.67383116, 0.11219127, 0.068093225, 0.115371704, 0
678, 1714490851, 0.5873476, -0.43931276, -0.08937512, -0.67382437, 0.05647675, 0.032192793, 0.101587296, 0
679, 1714507518, 0.5875098, -0.43921044, -0.089103796, -0.67378557, 0.048307184, -0.018465523, 0.18311405, 0
680, 1714524185, 0.58765954, -0.43912622, -0.08877108, -0.67375386, -0.008766681, 0.023578828, 0.20368195, 0
681, 1714540852, 0.58772963, -0.43910605, -0.08862299, -0.67372525, -0.055754244, 0.07699038, 0.24743462, 0
682, 1714557519, 0.58779323, -0.43907988, -0.08871964, -0.6736741, -0.0933689, 0.13193858, 0.18723106, 0
683, 1714574186, 0.5878618, -0.4391184, -0.08904069, -0.67354685, -0.048884295, 0.1407718, 0.14346504, 0
684, 1714590853, 0.58793885, -0.43922317, -0.089437895, -0.67335886, 0.013688101, 0.052987546, 0.13462543, 0
685, 1714607520, 0.5880215, -0.43933326, -0.089725465, -0.67317635, 0.04803992, -0.012285613, 0.069046974, 0
686, 1714624187, 0.58810097, -0.43941835, -0.089909144, -0.6730268, 0.058183774, -0.056208592, 0.110468864, 0
687, 1714640854, 0.5881859, -0.4394203, -0.0898338, -0.6729614, 0.07942304, -0.09764767, 0.18579292, 0
688, 1714657521, 0.5882638, -0.43938127, -0.089648105, -0.67294365, 0.031643342, -0.03137943, 0.16147137, 0
689, 1714674188, 0.5883811, -0.43931267, -0.08941265, -0.6729172, 0.024073575, 0.027760532, 0.2069292, 0
690, 1714690855, 0.5884986, -0.4392138, -0.0891611, -0.67291236, -0.027496563, 0.12327008, 0.179286, 0
691, 1714707522, 0.5885717, -0.4391651, -0.08905143, -0.67289484, -0.019639302, 0.10719123, 0.12392998, 0
692, 1714724189, 0.5886048, -0.43922105, -0.08903383, -0.6728316, -0.004919073, 0.067667656, 0.10268402, 0
693, 1714740856, 0.58860266, -0.4393562, -0.088978745, -0.6727524, 0.02327094, -0.07619624, 0.122657776, 0
694, 1714757523, 0.5886188, -0.43949676, -0.0886917, -0.67268425, -0.0050841374, -0.08412894, 0.11820793, 0
696, 1714790857, 0.58865523, -0.4397608, -0.08800314, -0.6725703, -0.016342318, 0.035148308, 0.2123537, 0
697, 1714807524, 0.5886469, -0.43989438, -0.087836765, -0.67251205, -0.0498378, 0.07959028, 0.18557358, 0
698, 1714824191, 0.58862, -0.44005993, -0.08781423, -0.6724303, -0.021811847, 0.07765511, 0.19843292, 0
699, 1714840858, 0.5885789, -0.4402039, -0.08787472, -0.67236423, -0.0036197924, 0.031497445, 0.23491287, 0
700, 1714857525, 0.5885425, -0.440377, -0.0878544, -0.6722853, 0.08738105, 0.040349007, 0.18965435, 0
701, 1714874192, 0.5885108, -0.44082507, -0.08760321, -0.6720521, 0.1343866, 0.031056901, 0.12081814, 0
702, 1714890859, 0.5885491, -0.4416913, -0.086871855, -0.67154473, 0.20769405, 0.053903725, 0.07124901, 0
703, 1714907526, 0.5885875, -0.44279656, -0.08608853, -0.6708838, 0.029970462, 0.09574892, 0.053875923, 0
705, 1714940860, 0.5884828, -0.4449308, -0.08550175, -0.6696374, -0.09474446, -0.024988748, 0.4949379, 0
706, 1714957527, 0.58855045, -0.446109, -0.08576773, -0.6687594, 0.019798834, 0.08305719, 0.5945425, 0
707, 1714974194, 0.588779, -0.44774944, -0.08679596, -0.66732764, 0.18028505, 0.20672937, 0.60689354, 0
708, 1714990861, 0.58928496, -0.44996014, -0.08826218, -0.66519856, 0.5021272, -0.21169001, 0.87606335, 0
709, 1715007528, 0.5895056, -0.45272678, -0.08947515, -0.66296, 0.47187838, 0.06386302, 1.0144844, 0
710, 1715024195, 0.5891513, -0.45668218, -0.09095136, -0.6603561, 0.48062947, -0.03352873, 1.9178009, 0
711, 1715040862, 0.58937585, -0.46152687, -0.09215024, -0.6566106, 0.41078037, -0.3206698, 2.6812906, 0
712, 1715057529, 0.59085697, -0.46572465, -0.09063945, -0.652513, 1.052895, -1.6665384, 4.053789, 0
713, 1715074196, 0.59331155, -0.46954536, -0.086121686, -0.64814484, 1.2066188, -1.0781809, 3.8119888, 0
714, 1715090863, 0.5963165, -0.47413233, -0.08002427, -0.64280725, 1.4246982, -0.8835058, 3.6043396, 0
715, 1715107530, 0.59962267, -0.48004988, -0.07246441, -0.6362027, 1.6218218, -0.79140705, 3.5347834, 0
716, 1715124197, 0.6033123, -0.4871823, -0.06377376, -0.62817264, 1.4241263, -0.6979188, 3.1488075, 0
717, 1715140864, 0.60702395, -0.49527, -0.054654364, -0.61906594, 1.1175332, -0.55470973, 2.692855, 0
718, 1715157531, 0.61063963, -0.5038594, -0.045697354, -0.6092263, 0.72871417, -0.4465315, 2.1010275, 0
719, 1715174198, 0.6144372, -0.51222473, -0.036855057, -0.5989444, 0.876463, -0.8326293, 1.9750319, 0
720, 1715190865, 0.61869484, -0.5195495, -0.02737381, -0.5886729, 1.3741578, -1.284904, 1.8992844, 0
721, 1715207532, 0.62368727, -0.52563083, -0.016254148, -0.5783272, 1.8314025, -1.5797317, 1.4823093, 0
722, 1715224199, 0.6294287, -0.5308821, -0.002574076, -0.56743026, 1.6416765, -1.217683, 0.560071, 0
723, 1715240866, 0.63539946, -0.5359028, 0.012515264, -0.5558049, 1.0537512, -0.49988538, -0.26054764, 0
724, 1715257533, 0.64100397, -0.5411663, 0.0272229, -0.54361016, 0.53577924, 0.04641336, -0.7948227, 0
725, 1715274200, 0.6461047, -0.5464991, 0.040776923, -0.53124845, 0.120679714, 0.32034168, -1.1214228, 0
726, 1715290867, 0.65071785, -0.55178034, 0.052474603, -0.51899076, -0.33799082, 0.7293292, -1.3724632, 0
727, 1715307534, 0.654931, -0.5569006, 0.06205479, -0.507027, -0.5151919, 0.72730064, -1.5821266, 0
728, 1715324201, 0.65872526, -0.5616478, 0.07047263, -0.49564776, -0.54720104, 0.5877917, -1.790698, 0
729, 1715340868, 0.66208035, -0.5658532, 0.07844639, -0.48508355, -0.61157286, 0.4543777, -1.9956269, 0
730, 1715357535, 0.6651112, -0.569468, 0.08630645, -0.4752734, -0.8752474, 0.47569948, -2.126461, 0
731, 1715374202, 0.6679091, -0.57256037, 0.09363961, -0.4661584, -1.0108914, 0.558225, -2.022015, 0
732, 1715390869, 0.67053986, -0.57525647, 0.10007209, -0.45764846, -0.8880974, 0.5013849, -2.0184336, 0
733, 1715407536, 0.6731416, -0.5775438, 0.1064829, -0.44942737, -0.9480023, 0.40557477, -2.024713, 0
734, 1715424203, 0.6755417, -0.5795062, 0.11262549, -0.44173717, -0.9800853, 0.48255777, -1.7410097, 0
735, 1715440870, 0.677584, -0.5812245, 0.11799554, -0.4348966, -1.0832267, 0.4728571, -1.5738811, 0
736, 1715457537, 0.6795146, -0.5826516, 0.122340776, -0.42873052, -0.9519504, 0.45875543, -1.4414148, 0
737, 1715474204, 0.68135303, -0.58371425, 0.12604675, -0.42325878, -0.8309487, 0.27527565, -1.295146, 0
738, 1715490871, 0.6829881, -0.5844986, 0.12925014, -0.41854894, -0.67278486, 0.25219527, -1.1296806, 0
739, 1715507538, 0.6844742, -0.585106, 0.13230681, -0.41429606, -0.6734838, 0.29887438, -1.0948353, 0
740, 1715524205, 0.685825, -0.5857073, 0.13513137, -0.41028112, -0.65778404, 0.37265265, -0.9967451, 0
741, 1715540872, 0.6869495, -0.586447, 0.13747601, -0.40654755, -0.66670895, 0.34339413, -0.78294563, 0
742, 1715557539, 0.6879405, -0.5870994, 0.13923211, -0.40331987, -0.66751933, 0.32894984, -0.5188484, 0
743, 1715574206, 0.688851, -0.58757746, 0.14033763, -0.40067744, -0.60743886, 0.32997864, -0.3918352, 0
744, 1715590873, 0.6897044, -0.5878641, 0.14104013, -0.39853677, -0.48312023, 0.2964763, -0.38503647, 0
745, 1715607540, 0.69029, -0.5880381, 0.1416515, -0.3970466, -0.2800292, 0.31491768, -0.3613901, 0
746, 1715624207, 0.6905206, -0.5882609, 0.14268047, -0.39594543, -0.25861657, 0.39987898, -0.3953085, 0
747, 1715640874, 0.69053733, -0.58870476, 0.14406197, -0.39475474, -0.34685254, 0.47425202, -0.38675022, 0
748, 1715657541, 0.69046944, -0.5893477, 0.14560694, -0.3933445, -0.4617237, 0.42117128, -0.27319527, 0
749, 1715674208, 0.6903218, -0.590047, 0.1470781, -0.3920058, -0.5992304, 0.33523366, -0.1674757, 0
750, 1715690875, 0.6901665, -0.59057516, 0.14813168, -0.391086, -0.72144306, 0.31811035, -0.074207306, 0
751, 1715707542, 0.6901262, -0.59078944, 0.14851306, -0.3906888, -0.74122405, 0.27750385, -0.004053116, 0
752, 1715724209, 0.6901504, -0.59074205, 0.14836147, -0.39077502, -0.5726032, 0.23985444, -0.07675648, 0
753, 1715740876, 0.69017273, -0.5905702, 0.14798334, -0.39113867, -0.5322084, 0.21282457, -0.19199371, 0
754, 1715757543, 0.69013816, -0.59039944, 0.14756827, -0.391614, -0.44698623, 0.20218267, -0.23142815, 0
755, 1715774210, 0.6900173, -0.59024316, 0.14730297, -0.39216235, -0.41325915, 0.22060415, -0.28379726, 0
756, 1715790877, 0.68983984, -0.5900919, 0.1470709, -0.39278865, -0.5186493, 0.30725163, -0.26001644, 0
757, 1715807544, 0.68958616, -0.58992165, 0.1464554, -0.39371857, -0.5535331, 0.31737453, -0.20000076, 0
759, 1715840878, 0.6889486, -0.58907676, 0.14416382, -0.39693263, -0.6803286, 0.28559458, -0.24226284, 0
760, 1715857545, 0.68862253, -0.588405, 0.14240116, -0.39912474, -0.7408062, 0.3528854, -0.32594204, 0
761, 1715874212, 0.6882634, -0.587623, 0.14003477, -0.4017252, -0.77274966, 0.37699327, -0.3790722, 0
762, 1715890879, 0.68786556, -0.58670276, 0.13714321, -0.40473768, -0.82359034, 0.4136999, -0.45751667, 0
763, 1715907546, 0.6873651, -0.5857075, 0.13377318, -0.40814307, -0.85100085, 0.5186931, -0.52782726, 0
764, 1715924213, 0.6867136, -0.5846282, 0.12990163, -0.4120195, -0.87174237, 0.5766572, -0.56519985, 0
765, 1715940880, 0.6859295, -0.5834733, 0.12548508, -0.4163091, -0.8723075, 0.62956154, -0.6373749, 0
766, 1715957547, 0.6849925, -0.5822142, 0.12050888, -0.4210579, -0.9032143, 0.6736426, -0.74987316, 0
767, 1715974214, 0.68381464, -0.5809218, 0.11483899, -0.4263092, -0.9264099, 0.71909994, -0.9278879, 0
768, 1715990881, 0.6823562, -0.57958686, 0.10828495, -0.4321383, -1.0035208, 0.71023256, -1.0426054, 0
769, 1716007548, 0.6805996, -0.578022, 0.10082384, -0.4387591, -0.9285967, 0.5823809, -1.158762, 0
770, 1716024215, 0.67859626, -0.5759809, 0.093107276, -0.44618848, -0.73157084, 0.4480885, -1.226862, 0
771, 1716040882, 0.67639124, -0.5733008, 0.08586049, -0.45436683, -0.57170975, 0.3449777, -1.3022146, 0
772, 1716057549, 0.67389715, -0.57009155, 0.0791312, -0.463246, -0.5586758, 0.32758418, -1.3270903, 0
773, 1716074216, 0.67098135, -0.566595, 0.07240321, -0.4727708, -0.54235107, 0.35644037, -1.4020252, 0
774, 1716090883, 0.66760087, -0.5630857, 0.06502588, -0.48271662, -0.56769764, 0.43407312, -1.4892235, 0
775, 1716107550, 0.66384387, -0.5595342, 0.05627126, -0.49301764, -0.5468292, 0.43420544, -1.421114, 0
776, 1716124217, 0.65979457, -0.55580324, 0.046100184, -0.5036157, -0.38414282, 0.376829, -1.3923063, 0
777, 1716140884, 0.65557766, -0.55183524, 0.035159595, -0.5142562, -0.007084271, 0.24991073, -1.4327393, 0
778, 1716157551, 0.6510045, -0.5477558, 0.024069306, -0.52495486, 0.2649823, 0.09817024, -1.3543863, 0
779, 1716174218, 0.6457909, -0.5438988, 0.013196171, -0.53568095, 0.3927912, -0.08073445, -1.148778, 0
780, 1716190885, 0.6399858, -0.5404328, 0.002978607, -0.5462067, 0.44747746, -0.2819142, -0.9690933, 0
781, 1716207552, 0.63388497, -0.5372173, -0.006435193, -0.5563686, 0.46149755, -0.41770324, -0.6197777, 0
782, 1716224219, 0.6278051, -0.5338196, -0.0150178, -0.56627923, 0.5273212, -0.5379049, -0.11516094, 0
783, 1716240886, 0.6219433, -0.52970636, -0.022514619, -0.5762734, 0.6180402, -0.6881224, 0.35977745, 0
784, 1716257553, 0.6163338, -0.5246133, -0.028875668, -0.58658314, 0.68835545, -0.7025723, 0.7301817, 0
785, 1716274220, 0.6110629, -0.51894623, -0.034604754, -0.5967407, 0.75534165, -0.66692936, 0.9031458, 0
786, 1716290887, 0.60636544, -0.51311547, -0.03950123, -0.60619575, 1.061467, -0.7233695, 1.2240772, 0
787, 1716307554, 0.6023271, -0.5074331, -0.043298732, -0.6146862, 1.2750105, -0.8193033, 1.5205679, 0
788, 1716324221, 0.5986906, -0.50230765, -0.0462333, -0.6221889, 1.4421351, -0.80998415, 1.8798733, 0
789, 1716340888, 0.59547085, -0.4980201, -0.04819839, -0.6285439, 1.3736168, -0.8135259, 2.0562887, 0
790, 1716357555, 0.59264857, -0.4944831, -0.049489297, -0.6338809, 1.086034, -0.6042156, 2.0994358, 0
791, 1716374222, 0.59002376, -0.49158365, -0.05120729, -0.638432, 0.6926175, -0.3704041, 2.1390858, 0
792, 1716390889, 0.5875425, -0.48894832, -0.054070983, -0.6424952, 0.49049336, -0.4133803, 2.175559, 0
793, 1716407556, 0.58549273, -0.48618263, -0.057246, -0.64617926, 0.51313597, -0.60387343, 2.148944, 0
794, 1716424223, 0.58408135, -0.48325363, -0.059847735, -0.64940995, 0.5405084, -0.6034282, 2.0273504, 0
795, 1716440890, 0.5831655, -0.48047626, -0.061947633, -0.6520913, 0.51468575, -0.5053, 1.8815498, 0
796, 1716457557, 0.5825811, -0.4779543, -0.063721016, -0.65429246, 0.43225732, -0.40242478, 1.6354399, 0
797, 1716474224, 0.5821879, -0.47560838, -0.06526648, -0.65619683, 0.24103098, -0.26779804, 1.3015337, 0
798, 1716490891, 0.58187044, -0.47345042, -0.06700323, -0.6578618, 0.081339106, -0.15140343, 0.9192085, 0
799, 1716507558, 0.5816194, -0.47159854, -0.06903408, -0.6592026, 0.04379317, -0.08551248, 0.6028042, 0
800, 1716524225, 0.5813191, -0.47004974, -0.07122814, -0.6603394, 0.0052386406, -0.059224006, 0.33515644, 0
802, 1716557559, 0.5805254, -0.46714863, -0.07557172, -0.6626095, 0.029713897, 0.022658179, 0.032125473, 0
803, 1716574226, 0.58026814, -0.46583253, -0.07744941, -0.663544, 0.077618755, 0.037311688, -0.059326172, 0
804, 1716590893, 0.5799926, -0.4646956, -0.079350814, -0.664357, 0.005176532, 0.12923676, -0.08184242, 0
805, 1716607560, 0.5796811, -0.46373996, -0.08161641, -0.66502166, -0.029193027, 0.1772898, 0.04231453, 0
806, 1716624227, 0.5794334, -0.46287093, -0.08415216, -0.6655267, 0.06467683, 0.13676669, 0.20487404, 0
807, 1716640894, 0.57920897, -0.46201503, -0.08660191, -0.6660024, 0.17068428, 0.09155426, 0.32675743, 0
808, 1716657561, 0.5789506, -0.46112967, -0.08868842, -0.66656584, 0.18761621, 0.03030925, 0.37265682, 0
809, 1716674228, 0.5786384, -0.4601329, -0.09026225, -0.66731405, 0.08418425, 0.048870884, 0.32468033, 0
810, 1716690895, 0.57828754, -0.458976, -0.09168994, -0.6682198, -0.04916883, 0.10471671, 0.20976067, 0
811, 1716707562, 0.5780212, -0.45752415, -0.09298659, -0.66926587, -0.04233134, 0.029706884, 0.27947426, 0
812, 1716724229, 0.57803273, -0.45574358, -0.093730606, -0.6703661, 0.08739971, -0.1557503, 0.5126724, 0
815, 1716774230, 0.5796721, -0.44972897, -0.09110572, -0.6733678, 0.28713378, -0.25851196, 0.8249283, 0
817, 1716807564, 0.5807774, -0.44713774, -0.08826803, -0.6745178, 0.055971835, -0.08061665, 0.68096256, 0
818, 1716824231, 0.5812071, -0.4460735, -0.087422214, -0.67496234, -0.0998952, 0.08805293, 0.39396095, 0
819, 1716840898, 0.5815407, -0.4449345, -0.08700855, -0.67548025, -0.20659487, 0.21159503, 0.11649227, 0
820, 1716857565, 0.58171695, -0.4435765, -0.08691531, -0.676233, -0.21836768, 0.23354399, -0.04300499, 0
821, 1716874232, 0.5814544, -0.4431915, -0.08746733, -0.6766401, 0.18684158, 0.58202213, 0.06767368, 0
822, 1716890899, 0.5809751, -0.4430438, -0.08786342, -0.677097, 0.08254216, 0.0968457, 0.25909996, 0
823, 1716907566, 0.58039147, -0.4429463, -0.08837805, -0.67759407, 0.03596681, 0.18368183, 0.19851685, 0
824, 1716924233, 0.579799, -0.44275317, -0.088942274, -0.67815346, 0.06607026, -0.08007642, 0.19039917, 0
825, 1716940900, 0.57927877, -0.44243255, -0.08943034, -0.67874277, 0.05536628, -0.015700668, 0.12586021, 0
826, 1716957567, 0.5788211, -0.44209123, -0.0899572, -0.67928594, 0.059267085, -0.02375138, 0.14015388, 0
827, 1716974234, 0.57851934, -0.4415123, -0.090449356, -0.6798537, 0.028667437, -0.05214155, 0.16372871, 0
828, 1716990901, 0.578392, -0.44061324, -0.09100681, -0.68047076, -0.018700045, -0.08567341, 0.17289925, 0
829, 1717007568, 0.57836956, -0.4393335, -0.09165503, -0.68123, -0.10079138, -0.06367258, 0.12632465, 0
831, 1717040902, 0.578584, -0.4369639, -0.09241562, -0.68246806, 0.041205842, 0.18526989, 0.06383133, 0
832, 1717057569, 0.5786316, -0.43635803, -0.09264022, -0.68278474, 0.045048982, -0.03670485, 0.09916496, 0
833, 1717074236, 0.57873154, -0.4358133, -0.09259547, -0.683054, 0.15749292, -0.116999865, 0.12454319, 0
834, 1717090903, 0.5789623, -0.4352774, -0.09216238, -0.6832587, 0.10739993, -0.15366001, 0.20761204, 0
835, 1717107570, 0.5791525, -0.43489686, -0.09159708, -0.6834157, 0.11303816, 0.03946412, 0.19335556, 0
836, 1717124237, 0.57927054, -0.43460128, -0.09126564, -0.68354815, -0.005255069, 0.18784118, 0.16053772, 0
837, 1717140904, 0.57934695, -0.43435755, -0.09109068, -0.6836615, 0.01930962, 0.18630363, 0.16733074, 0
838, 1717157571, 0.57939446, -0.43416703, -0.09089606, -0.6837684, 0.0068701734, 0.12927878, 0.119431496, 0
839, 1717174238, 0.5793615, -0.43407872, -0.090768024, -0.68386924, -0.0074617006, 0.033421, 0.09104538, 0
840, 1717190905, 0.57933176, -0.43401104, -0.09049257, -0.6839739, 0.027585242, -0.0425182, 0.16323566, 0
841, 1717207572, 0.57931495, -0.43397936, -0.09007582, -0.68406343, 0.02930523, -0.04042187, 0.15742207, 0
842, 1717224239, 0.5793467, -0.4339452, -0.08959736, -0.6841209, 0.01149896, -0.039479315, 0.15760708, 0
843, 1717240906, 0.5793782, -0.43388477, -0.08902721, -0.68420696, 0.008365476, -0.021838333, 0.1753664, 0
844, 1717257573, 0.57938075, -0.4338416, -0.08842552, -0.6843102, 0.008707673, 0.054105334, 0.17511463, 0
845, 1717274240, 0.57939816, -0.43381366, -0.08783843, -0.68438864, 0.027821887, 0.068721965, 0.1914444, 0
846, 1717290907, 0.57940936, -0.43380687, -0.08735359, -0.6844456, 0.0024144428, 0.078414604, 0.17399693, 0
847, 1717307574, 0.5794126, -0.43386725, -0.08696783, -0.68445367, 0.03662243, 0.053701445, 0.16888905, 0
848, 1717324241, 0.57940847, -0.43393198, -0.086653486, -0.6844561, -0.0023992998, 0.036847677, 0.18157196, 0
849, 1717340908, 0.5793963, -0.43399164, -0.086433925, -0.68445635, -0.005109953, 0.08919553, 0.1716919, 0
850, 1717357575, 0.5793921, -0.43400198, -0.086325206, -0.6844671, -0.026221143, 0.099380344, 0.17633438, 0
851, 1717374242, 0.57940114, -0.43400243, -0.08633497, -0.6844579, -0.022302961, 0.08788843, 0.18565369, 0
852, 1717390909, 0.579434, -0.43401295, -0.08641449, -0.68441343, -0.0037352927, 0.05557739, 0.16508102, 0
853, 1717407576, 0.57949305, -0.43401513, -0.086516775, -0.684349, -0.006357323, 0.06114264, 0.15132046, 0
854, 1717424243, 0.5795613, -0.43402156, -0.08659958, -0.68427664, 0.014106182, 0.0034441112, 0.1469965, 0
855, 1717440910, 0.57965225, -0.43400812, -0.08659635, -0.6842086, 0.018624999, 0.01585735, 0.15173626, 0
856, 1717457577, 0.5797239, -0.43401515, -0.08656735, -0.68414706, 7.919064E-4, 0.017830746, 0.16945553, 0
857, 1717474244, 0.5798154, -0.4339797, -0.08656699, -0.68409204, 0.0064944485, 0.03877391, 0.16110897, 0
858, 1717490911, 0.57988936, -0.43395677, -0.08662144, -0.6840371, 0.006673035, 0.060840003, 0.16218758, 0
859, 1717507578, 0.5799721, -0.43397662, -0.08667945, -0.68394697, 0.0342214, 0.011780697, 0.1323328, 0
860, 1717524245, 0.5800564, -0.43400773, -0.08666336, -0.6838577, 0.014126466, -0.009728177, 0.1329565, 0
861, 1717540912, 0.58014107, -0.4340297, -0.086550325, -0.6837863, 0.0012285389, -0.016469551, 0.16439152, 0
862, 1717557579, 0.58020616, -0.4340599, -0.08642734, -0.6837275, -0.029471692, 0.029999685, 0.17293835, 0
863, 1717574246, 0.5802519, -0.4341076, -0.08637606, -0.6836648, -0.013303938, 0.07983458, 0.18685722, 0
864, 1717590913, 0.58029646, -0.4341519, -0.08639843, -0.6835959, -0.013307682, 0.07634174, 0.1506033, 0
865, 1717607580, 0.5803495, -0.43419737, -0.08643893, -0.683517, 0.009756508, 0.021909187, 0.15545177, 0
866, 1717624247, 0.58042294, -0.43424737, -0.08639576, -0.68342835, 0.015539627, -0.025750257, 0.13027573, 0
867, 1717640914, 0.58049977, -0.43431446, -0.0862204, -0.6833427, 0.052481122, -0.03832532, 0.16253853, 0
868, 1717657581, 0.58057666, -0.43447006, -0.08601368, -0.68320423, 0.047903575, 0.007434488, 0.15887737, 0
869, 1717674248, 0.58063066, -0.43468788, -0.08579432, -0.6830474, 0.036705576, 0.05295044, 0.13493824, 0
870, 1717690915, 0.5807041, -0.43500078, -0.085467055, -0.6828269, 0.055720102, 0.026435325, 0.15986347, 0
871, 1717707582, 0.5808228, -0.43548766, -0.084984116, -0.6824758, 0.11156476, -0.017713625, 0.15624142, 0
872, 1717724249, 0.5810524, -0.43628338, -0.08424393, -0.6818635, 0.22518472, -0.016638082, 0.11258602, 0
873, 1717740916, 0.5814741, -0.43770105, -0.08316226, -0.6807273, 0.32996017, 0.020462388, 0.08422279, 0
874, 1717757583, 0.5820435, -0.4399783, -0.081865124, -0.6789274, 0.16492787, 0.14535114, 0.028292656, 0
875, 1717774250, 0.58296275, -0.4427232, -0.080550395, -0.6765075, 0.10140923, -0.42436618, 0.5393686, 0
876, 1717790917, 0.5840054, -0.4451333, -0.07901933, -0.67420334, -0.10854957, -0.516479, 0.97668076, 0
877, 1717807584, 0.58439946, -0.4481377, -0.07880153, -0.6718932, 0.020497814, 0.23551291, 1.438159, 0
878, 1717824251, 0.5843627, -0.4526781, -0.08102285, -0.668609, 0.21388988, 0.2739455, 2.0632, 0
879, 1717840918, 0.58445114, -0.45836145, -0.08430335, -0.66423994, 0.70026916, -0.14368328, 2.665637, 0
880, 1717857585, 0.5850696, -0.46590206, -0.08896275, -0.6578105, 0.62725455, -0.59648234, 2.7502422, 0
881, 1717874252, 0.58615106, -0.47322768, -0.09118619, -0.6512817, 1.0630958, -1.2718184, 3.4982681, 0
882, 1717890919, 0.58788306, -0.4803712, -0.091058396, -0.644473, 1.0927254, -1.3284699, 3.5757532, 0
883, 1717907586, 0.59043545, -0.48676378, -0.08904083, -0.63758814, 1.2178148, -1.6264206, 3.7514257, 0
884, 1717924253, 0.5939796, -0.49243253, -0.08475351, -0.63048804, 1.5436223, -1.6759118, 3.583229, 0
885, 1717940920, 0.59875053, -0.4979388, -0.07844569, -0.6224155, 1.8202571, -1.6290733, 3.3149385, 0
887, 1717974254, 0.6111035, -0.5105545, -0.061613433, -0.6017398, 1.6779674, -1.0085379, 2.228426, 0
889, 1718007588, 0.624243, -0.52534544, -0.043687813, -0.57656235, 1.0029919, -0.51420856, 1.2659616, 0
890, 1718024255, 0.63059574, -0.5322501, -0.034538243, -0.5637958, 1.156987, -0.46937275, 0.8196268, 0
891, 1718040922, 0.636829, -0.5386802, -0.024554007, -0.5510623, 1.2466724, -0.28282323, 0.10557842, 0
892, 1718057589, 0.6429616, -0.5448207, -0.013760913, -0.53812796, 0.8271284, 0.035431944, -0.5586338, 0
893, 1718074256, 0.6485746, -0.55096084, -0.003702905, -0.5251473, 0.4478832, 0.38556343, -0.90716934, 0
894, 1718090923, 0.6537948, -0.55698377, 0.005500894, -0.5121438, 0.2666705, 0.5451704, -1.1133556, 0
895, 1718107590, 0.65879667, -0.56260777, 0.014203367, -0.49925753, 0.19396555, 0.4934254, -1.2825079, 0
896, 1718124257, 0.6634862, -0.56767434, 0.02239149, -0.486858, 0.13176404, 0.5132262, -1.4348774, 0
897, 1718140924, 0.6678556, -0.57233363, 0.030208886, -0.47485873, -0.07237837, 0.5353511, -1.6511202, 0
898, 1718157591, 0.6718021, -0.5767141, 0.03806389, -0.46328607, -0.13864072, 0.5656232, -1.82586, 0
899, 1718174258, 0.6751546, -0.58096266, 0.04599428, -0.45225358, -0.3225123, 0.5531456, -1.8960314, 0
900, 1718190925, 0.6779325, -0.5849465, 0.053850874, -0.44197893, -0.46132246, 0.55466753, -1.756381, 0
901, 1718207592, 0.68028677, -0.5884344, 0.06106617, -0.43269658, -0.6467418, 0.46827865, -1.4925642, 0
902, 1718224259, 0.6824045, -0.5912762, 0.06748344, -0.4244559, -0.7417826, 0.46662286, -1.3042974, 0
903, 1718240926, 0.68446964, -0.59353083, 0.07303003, -0.41700026, -0.7836592, 0.38000956, -1.2168331, 0
904, 1718257593, 0.6865327, -0.5953726, 0.07828905, -0.40996975, -0.6101028, 0.389822, -1.3159313, 0
905, 1718274260, 0.6885174, -0.597174, 0.083938666, -0.4028415, -0.6368404, 0.529194, -1.4622154, 0
906, 1718290927, 0.69020844, -0.5992369, 0.08982129, -0.39554998, -0.7946378, 0.6292768, -1.4154434, 0
907, 1718307594, 0.69136316, -0.60159665, 0.095264494, -0.38861722, -0.8752949, 0.6460617, -1.1670914, 0
908, 1718324261, 0.6921454, -0.6038153, 0.10036342, -0.38245144, -0.9278548, 0.47314742, -0.90008354, 0
909, 1718340928, 0.69276667, -0.60544896, 0.10524072, -0.37739977, -0.9224957, 0.39802113, -0.6917114, 0
910, 1718357595, 0.69324523, -0.6064882, 0.109824434, -0.37352616, -0.9576292, 0.28875685, -0.76225376, 0
911, 1718374262, 0.69361883, -0.60722756, 0.11403236, -0.37035686, -0.99333036, 0.34630784, -0.97236156, 0
912, 1718390929, 0.6938955, -0.6079767, 0.11779815, -0.36741936, -1.0437573, 0.34509975, -1.0869083, 0
913, 1718407596, 0.69404846, -0.6088736, 0.121109724, -0.3645577, -0.9875856, 0.3256803, -1.0596514, 0
914, 1718424263, 0.69417155, -0.6097199, 0.12434183, -0.36181048, -0.88524425, 0.24408934, -0.82328796, 0
915, 1718440930, 0.6943279, -0.6102616, 0.12789294, -0.35935113, -0.7800706, 0.219441, -0.6263771, 0
916, 1718457597, 0.6943175, -0.6105328, 0.131582, -0.3575743, -0.8515083, 0.31184864, -0.5838709, 0
917, 1718474264, 0.6940366, -0.61078256, 0.13474818, -0.35651222, -1.1231415, 0.5019415, -0.5552349, 0
918, 1718490931, 0.69366413, -0.6111384, 0.13706915, -0.35574177, -1.3134305, 0.55040467, -0.66461754, 0
919, 1718507598, 0.6932909, -0.6115743, 0.13839492, -0.35520673, -1.32608, 0.44430843, -0.5628271, 0
920, 1718524265, 0.6929243, -0.6119628, 0.13865502, -0.35515168, -1.219272, 0.31175074, -0.42461967, 0
921, 1718540932, 0.69268787, -0.61207116, 0.13819206, -0.3556056, -0.9720163, 0.16232003, -0.33151245, 0
922, 1718557599, 0.6926076, -0.61187375, 0.13735013, -0.3564272, -0.78820354, 0.056400366, -0.27319622, 0
923, 1718574266, 0.69265485, -0.6113243, 0.13658632, -0.35756955, -0.6184884, 0.017095612, -0.16971302, 0
924, 1718590933, 0.6927491, -0.6105932, 0.13587295, -0.35890564, -0.5688338, 0.09776412, -0.15418911, 0
925, 1718607600, 0.6927844, -0.6098574, 0.1350527, -0.3603949, -0.52236354, 0.12937064, -0.08393288, 0
926, 1718624267, 0.6927483, -0.6091663, 0.13394532, -0.36204255, -0.48090187, 0.14199689, 0.02695465, 0
927, 1718640934, 0.69268996, -0.6084566, 0.13257715, -0.3638468, -0.4650328, 0.13249668, 0.098968506, 0
928, 1718657601, 0.69264984, -0.6076568, 0.13079779, -0.3658983, -0.35303855, 0.115118116, 0.090620995, 0
929, 1718674268, 0.69261587, -0.6067595, 0.12895629, -0.36809883, -0.19520918, 0.101073004, 0.06360626, 0
930, 1718690935, 0.6924359, -0.60590094, 0.12744416, -0.37037116, -0.14506477, 0.18476385, 0.009562492, 0
931, 1718707602, 0.6921013, -0.60518825, 0.12606992, -0.37262505, -0.20869857, 0.3072467, -0.016596794, 0
932, 1718724269, 0.6916636, -0.60462296, 0.12447136, -0.37488577, -0.26912278, 0.36567882, -0.04068184, 0
933, 1718740936, 0.6911438, -0.60411465, 0.12257625, -0.377281, -0.35534436, 0.39751467, -0.0878315, 0
934, 1718757603, 0.6905255, -0.60364604, 0.12028971, -0.3798902, -0.5848615, 0.387588, -0.17878246, 0
935, 1718774270, 0.6898135, -0.6032022, 0.11741475, -0.3827773, -0.7512282, 0.409406, -0.3311472, 0
936, 1718790937, 0.689024, -0.6027952, 0.11385852, -0.385902, -0.8453434, 0.38933364, -0.5073023, 0
937, 1718807604, 0.6880958, -0.602372, 0.10994204, -0.38933933, -0.8575122, 0.3421836, -0.7594824, 0
938, 1718824271, 0.6870499, -0.60174304, 0.106156, -0.3931906, -0.8226889, 0.23968568, -0.8889265, 0
939, 1718840938, 0.6858384, -0.6006541, 0.103122935, -0.39775118, -0.8685374, 0.114953384, -0.8293972, 0
940, 1718857605, 0.68445826, -0.5989598, 0.10106515, -0.40317497, -1.0291866, 0.1820104, -0.9143448, 0
941, 1718874272, 0.6829573, -0.59675086, 0.09956112, -0.40932316, -1.3003567, 0.47955084, -1.1360102, 0
943, 1718907606, 0.6791767, -0.59159905, 0.09418553, -0.42409775, -1.3101419, 0.8529941, -1.3769102, 0
944, 1718924273, 0.67689025, -0.5887477, 0.089540266, -0.43264124, -1.2366496, 0.8754991, -1.4250078, 0
945, 1718940940, 0.67439556, -0.58583176, 0.08324107, -0.44165924, -1.0685142, 0.8724319, -1.5351686, 0
946, 1718957607, 0.67154795, -0.5829195, 0.07544093, -0.45115083, -0.8136538, 0.6505139, -1.6042414, 0
947, 1718974274, 0.668383, -0.5797648, 0.066808194, -0.4611656, -0.5758986, 0.31793198, -1.5985746, 0
948, 1718990941, 0.66505325, -0.5761805, 0.0579268, -0.47155568, -0.48041221, 0.1094382, -1.6358261, 0
950, 1719024275, 0.65861416, -0.56727564, 0.039883867, -0.4927833, -0.14969353, -0.12958185, -1.2605581, 0
951, 1719040942, 0.6558036, -0.56144357, 0.031528786, -0.50369525, 0.057997156, -0.1388429, -0.97259617, 0
952, 1719057609, 0.6532424, -0.55462134, 0.024007212, -0.5148721, 0.27972782, 0.0077688633, -0.83524036, 0
953, 1719074276, 0.65060073, -0.547201, 0.017145513, -0.5263041, 0.47119135, 0.15755205, -0.78793144, 0
954, 1719090943, 0.64750516, -0.53967476, 0.010281635, -0.53794277, 0.5056103, 0.36399353, -0.693779, 0
955, 1719107610, 0.6436271, -0.5325957, 0.002195463, -0.54961944, 0.6940767, 0.39864495, -0.5731487, 0
956, 1719124277, 0.6394458, -0.5261949, -0.006547237, -0.56052244, 0.9724103, 0.13712229, -0.24094582, 0
957, 1719140944, 0.6354789, -0.52025837, -0.01461114, -0.570337, 1.2820675, -0.280205, 0.26297665, 0
958, 1719157611, 0.63168454, -0.5145273, -0.021372223, -0.57946473, 1.3765482, -0.5366222, 0.6689453, 0
959, 1719174278, 0.62757236, -0.5091417, -0.027633931, -0.5883571, 1.3045526, -0.57335544, 0.98720646, 0
960, 1719190945, 0.6232751, -0.5040765, -0.034048665, -0.5968885, 1.2481006, -0.61440825, 1.32656, 0
961, 1719207612, 0.6193526, -0.4990645, -0.04014386, -0.6047526, 1.172969, -0.70720124, 1.6188116, 0
962, 1719224279, 0.6160726, -0.49363258, -0.04524347, -0.6121556, 1.1248176, -0.8225648, 1.8921919, 0
963, 1719240946, 0.6131749, -0.48791775, -0.04950648, -0.61927545, 1.0294241, -0.8397561, 2.0030165, 0
964, 1719257613, 0.61055064, -0.4823609, -0.05317295, -0.6258822, 1.0161096, -0.7920269, 2.0016823, 0
965, 1719274280, 0.6080803, -0.47745076, -0.05654079, -0.63172966, 0.95907575, -0.67370915, 1.9606581, 0
966, 1719290947, 0.6055817, -0.47362363, -0.059849206, -0.6366864, 0.821709, -0.46918857, 1.8298817, 0
967, 1719307614, 0.6031744, -0.47091523, -0.0630805, -0.64065623, 0.77684945, -0.40228108, 1.8855286, 0
968, 1719324281, 0.60095984, -0.4689423, -0.06601323, -0.64388096, 0.7013433, -0.43634558, 1.933116, 0
970, 1719357615, 0.5968774, -0.46587387, -0.070728324, -0.6493816, 0.33615154, -0.48794308, 1.681593, 0
971, 1719374282, 0.59511065, -0.46430716, -0.07250291, -0.6519245, 0.23168565, -0.48320395, 1.4721107, 0
972, 1719390949, 0.59362596, -0.46271682, -0.07384935, -0.65425354, 0.28680432, -0.43358564, 1.2681131, 0
973, 1719407616, 0.5924423, -0.46128154, -0.07487377, -0.6562206, 0.31898174, -0.3255209, 1.0912361, 0
974, 1719424283, 0.5915577, -0.46015275, -0.075276844, -0.65776324, 0.31333163, -0.39943284, 1.2246733, 0
975, 1719440950, 0.5911529, -0.4590109, -0.07445948, -0.65901685, 0.32574123, -0.7167339, 1.4907551, 0
976, 1719457617, 0.5913904, -0.45748684, -0.072294354, -0.66010386, 0.30117494, -0.8940963, 1.5451164, 0
977, 1719474284, 0.5920332, -0.45569232, -0.06948293, -0.66107, 0.17393717, -0.6778084, 1.2388182, 0
978, 1719490951, 0.5927414, -0.4540128, -0.06692068, -0.6618548, 0.04635913, -0.28926554, 0.8553667, 0
979, 1719507618, 0.5932829, -0.45264843, -0.0650447, -0.6624906, -0.08718047, 0.09260723, 0.41436195, 0
980, 1719524285, 0.5935591, -0.45157886, -0.06395098, -0.6630797, -0.11555849, 0.3087977, 0.15392208, 0
981, 1719540952, 0.59352976, -0.45066848, -0.06329263, -0.6637881, -0.06525159, 0.3050849, -0.015927315, 0
982, 1719557619, 0.593401, -0.44956025, -0.06257731, -0.6647216, -0.10497096, 0.21365246, -0.07194042, 0
983, 1719574286, 0.5928689, -0.44885117, -0.061921235, -0.6657363, 0.09034394, 0.7899107, 0.037927628, 0
984, 1719590953, 0.59197253, -0.44867757, -0.06205221, -0.6666382, -0.07973576, 0.32198092, 0.3405447, 0
985, 1719607620, 0.59115624, -0.44831127, -0.06233795, -0.66758186, 9.849657E-4, 0.21369314, 0.34969044, 0
986, 1719624287, 0.5904551, -0.4478517, -0.06264591, -0.6684812, 0.026120283, 0.073900536, 0.21931839, 0
987, 1719640954, 0.5899078, -0.44732517, -0.06295108, -0.6692878, 0.016206924, -0.17210408, 0.15369797, 0
988, 1719657621, 0.5894592, -0.44676962, -0.06330126, -0.67002076, -0.010446185, -0.213072, 0.114367485, 0
989, 1719674288, 0.58901924, -0.44619426, -0.06366818, -0.67075586, -0.057870578, -0.18662952, 0.14606857, 0
990, 1719690955, 0.5885688, -0.44550276, -0.06402335, -0.67157656, -0.097985566, -0.042046364, 0.21972466, 0
991, 1719707622, 0.5880631, -0.44477838, -0.06463376, -0.67244077, -0.113504514, 0.08808757, 0.20768642, 0
992, 1719724289, 0.5875621, -0.44406196, -0.06545317, -0.6732724, -0.044380955, 0.114372924, 0.20453644, 0
993, 1719740956, 0.58712894, -0.44329238, -0.066248, -0.6740792, 0.008909562, 0.032902002, 0.15869522, 0
994, 1719757623, 0.58675987, -0.4424471, -0.06684786, -0.67489624, 0.035761513, -0.033942454, 0.14183235, 0
995, 1719774290, 0.5864713, -0.44175714, -0.06728149, -0.6755556, 0.094046265, -0.018234858, 0.12512875, 0
996, 1719790957, 0.58630496, -0.44139585, -0.06753804, -0.6759104, 0.17827834, 0.0030250244, 0.14177513, 0
997, 1719807624, 0.5861635, -0.4412438, -0.0676735, -0.6761188, 0.118486956, 0.020165786, 0.096526146, 0
998, 1719824291, 0.5859953, -0.4411826, -0.0677362, -0.67629826, 0.07695428, -0.007831447, 0.12288761, 0
999, 1719840958, 0.58584946, -0.4411071, -0.0676556, -0.67648196, 0.021625157, 0.0020598953, 0.0954628, 0
1000, 1719857625, 0.5857503, -0.44100568, -0.06744905, -0.6766546, 7.106594E-4, 0.02078827, 0.09920597, 0
1001, 1719874292, 0.5856372, -0.44091603, -0.06719175, -0.67683625, 0.014311031, 0.02590068, 0.14157486, 0
1002, 1719890959, 0.5855285, -0.4408132, -0.06683721, -0.67703235, 0.019421684, -0.018721221, 0.15425491, 0
1003, 1719907626, 0.58539724, -0.44068334, -0.06643464, -0.6772702, 0.008516458, -0.016606342, 0.17187214, 0
1004, 1719924293, 0.5852807, -0.4405802, -0.066077575, -0.67747283, 0.06413014, -0.06650226, 0.21481419, 0
1005, 1719940960, 0.5852308, -0.4403879, -0.065634124, -0.6776841, 0.01664001, 0.020580625, 0.1834116, 0
1006, 1719957627, 0.5851579, -0.4402869, -0.065319315, -0.67784303, 0.0116668735, 0.097016245, 0.15574741, 0
1007, 1719974294, 0.5849718, -0.44026062, -0.065167084, -0.6780354, 0.0032907533, 0.0631898, 0.17294598, 0
1008, 1719990961, 0.5845871, -0.4402342, -0.065125756, -0.6783881, -0.036604382, 0.041380964, 0.23992252, 0
1009, 1720007628, 0.5840952, -0.44009027, -0.06512898, -0.67890483, -0.02699894, -0.003320285, 0.2752285, 0
1010, 1720024295, 0.5836549, -0.4398279, -0.06514669, -0.6794516, -0.024959188, 0.0092382375, 0.22895718, 0
1011, 1720040962, 0.583299, -0.43944144, -0.06511665, -0.68000984, -0.02535095, 0.096026085, 0.15476799, 0
1012, 1720057629, 0.58302915, -0.43905833, -0.06512697, -0.68048775, -0.0117169125, 0.112273015, 0.09894371, 0
1013, 1720074296, 0.5829139, -0.43881592, -0.06521895, -0.6807339, -0.010860215, 0.09555581, 0.096354485, 0
1014, 1720090963, 0.582946, -0.4387127, -0.06533482, -0.68076175, 2.4600394E-4, 0.047245722, 0.071653366, 0
1015, 1720107630, 0.58305645, -0.43864167, -0.065467656, -0.68070024, 0.013558379, 0.049863283, 0.11318874, 0
1016, 1720124297, 0.5831808, -0.43852374, -0.06550153, -0.68066645, 0.038474094, 0.020443166, 0.17143822, 0
1017, 1720140964, 0.5832513, -0.4383414, -0.065473676, -0.6807262, -0.0014365178, -0.0011770192, 0.1994648, 0
1018, 1720157631, 0.5832721, -0.43814003, -0.06547207, -0.6808379, -0.006108721, -0.05732839, 0.23765564, 0
1019, 1720174298, 0.5832805, -0.4379564, -0.06543791, -0.6809524, -0.014293905, 8.075523E-4, 0.16044235, 0
1020, 1720190965, 0.5832762, -0.43782488, -0.06543415, -0.68104094, 0.0049776617, 0.0605624, 0.112903595, 0
1022, 1720224299, 0.5832726, -0.43781412, -0.065292686, -0.68106455, 0.06733831, 0.02438124, 0.08963585, 0
1023, 1720240966, 0.5833263, -0.43793362, -0.06504876, -0.6809648, 0.038630217, -0.008541995, 0.10811043, 0
1024, 1720257633, 0.5834102, -0.4380492, -0.06468588, -0.6808534, 0.012754013, 0.05172805, 0.14201927, 0
1025, 1720274300, 0.5834852, -0.4381034, -0.06429982, -0.68079096, -0.034524117, 0.019611027, 0.19977665, 0
1026, 1720290967, 0.5834887, -0.4381308, -0.064083576, -0.68079054, -0.04959392, 0.043886323, 0.22054005, 0
1027, 1720307634, 0.5834449, -0.4380989, -0.06404747, -0.68085206, -0.04864916, 0.030691905, 0.22612667, 0
1028, 1720324301, 0.58342075, -0.43804, -0.06410852, -0.68090475, 8.672303E-4, 0.059340455, 0.17876339, 0
1029, 1720340968, 0.5834285, -0.43799558, -0.06416705, -0.68092114, 0.007868075, 0.09388751, 0.118618965, 0
1030, 1720357635, 0.58346635, -0.438006, -0.064208105, -0.6808782, 0.0012059362, 0.025742881, 0.09848881, 0
1033, 1720407636, 0.58369315, -0.43793043, -0.06412965, -0.6807398, -0.01165743, 0.05944707, 0.1912651, 0
1034, 1720424303, 0.58374774, -0.4378145, -0.0642313, -0.68075806, -0.0063061947, 0.08124919, 0.18377304, 0
1035, 1720440970, 0.5837809, -0.43775442, -0.06440354, -0.680752, 0.019704651, 0.03511679, 0.16202927, 0
1036, 1720457637, 0.58381385, -0.43779233, -0.06450324, -0.68069, 0.052359473, 0.012033043, 0.08820248, 0
1037, 1720474304, 0.58379877, -0.43798676, -0.06447656, -0.68058026, 0.05542613, -0.037963677, 0.1029644, 0
1038, 1720490971, 0.5837293, -0.43859807, -0.06420745, -0.6802717, 0.18178937, -0.051989336, 0.12104416, 0
1039, 1720507638, 0.58375317, -0.44020802, -0.063305125, -0.6792951, 0.4390593, -0.016806163, -0.016400337, 0
1040, 1720524305, 0.58418286, -0.44252613, -0.062086307, -0.6775296, 0.1050852, -0.15794542, 0.038161278, 0
1041, 1720540972, 0.58461106, -0.44512135, -0.06082482, -0.6755719, 0.18619189, 0.01617921, 0.5254555, 0
1042, 1720557639, 0.58473474, -0.4476686, -0.060734008, -0.6737876, -0.20776625, 0.3403861, 0.51832485, 0
1043, 1720574306, 0.5850492, -0.45051396, -0.061807442, -0.6715168, 0.2846432, 0.13210554, 1.0730343, 0
1044, 1720590973, 0.58510303, -0.45446467, -0.06358052, -0.6686359, 0.7196021, 0.62779427, 1.3885746, 0
1045, 1720607640, 0.5844856, -0.45977378, -0.06598182, -0.6653052, 0.9153222, 0.5639623, 2.1502504, 0
1046, 1720624307, 0.5830839, -0.4664831, -0.06907701, -0.66154015, 0.7943049, 0.2722238, 2.5891762, 0
1047, 1720640974, 0.5812447, -0.47401804, -0.07198381, -0.65747994, 0.8520009, -0.14524408, 2.978858, 0
1048, 1720657641, 0.58012724, -0.4815243, -0.07284999, -0.652901, 1.0552284, -1.3050903, 3.4956303, 0
1049, 1720674308, 0.5800804, -0.48859155, -0.07170329, -0.6477992, 0.8948983, -1.1422911, 3.255702, 0
1050, 1720690975, 0.5811153, -0.4949601, -0.06852748, -0.64235795, 0.93645453, -1.4189242, 3.110529, 0
1051, 1720707642, 0.5833322, -0.50057346, -0.063655674, -0.63647294, 0.847621, -1.2680397, 2.7046375, 0
1052, 1720724309, 0.5863436, -0.50596714, -0.057968147, -0.62995106, 0.84312004, -1.0325096, 2.1636915, 0
1053, 1720740976, 0.58978444, -0.5115805, -0.052157458, -0.62267125, 0.68369985, -0.8034627, 1.6458178, 0
1054, 1720757643, 0.59358287, -0.51747656, -0.046666596, -0.6145729, 0.66143715, -0.8172217, 1.4130726, 0
1055, 1720774310, 0.597818, -0.52334386, -0.041319128, -0.60581994, 0.821768, -0.9416158, 1.2919455, 0
1056, 1720790977, 0.60265434, -0.52874506, -0.035174843, -0.59665674, 1.0053208, -1.0523443, 1.057745, 0
1057, 1720807644, 0.6079145, -0.5335787, -0.027528882, -0.5873467, 0.994122, -0.9392363, 0.6244793, 0
1058, 1720824311, 0.6132442, -0.53799915, -0.018794876, -0.57804453, 0.72718465, -0.54959846, 0.14401627, 0
1059, 1720840978, 0.61844826, -0.54235524, -0.0099797845, -0.56857103, 0.47105435, -0.13825238, -0.39969063, 0
1060, 1720857645, 0.62340295, -0.54690516, -0.0017168229, -0.558803, 0.27219725, 0.07329705, -0.8072643, 0
1061, 1720874312, 0.6280469, -0.5514942, 0.00581043, -0.5489787, 0.15627939, 0.054363716, -1.0148792, 0
1062, 1720890979, 0.63243496, -0.5558631, 0.012836784, -0.5393306, 0.037258662, 0.025721423, -1.1380882, 0
1063, 1720907646, 0.6365455, -0.5600264, 0.019316452, -0.5299125, 0.05265291, 0.07063904, -1.2124891, 0
1064, 1720924313, 0.6404738, -0.5640917, 0.025371414, -0.52052873, 0.11853057, 0.012557629, -1.2933846, 0
1065, 1720940980, 0.6443567, -0.56812763, 0.03136614, -0.51093197, 0.20135863, -0.02531016, -1.2509851, 0
1066, 1720957647, 0.6480609, -0.57202166, 0.03763739, -0.50138974, 0.18853784, -0.071569964, -1.0718489, 0
1067, 1720974314, 0.6514434, -0.57575524, 0.044147067, -0.49211633, 0.031117264, 0.06264196, -1.0352201, 0
1068, 1720990981, 0.6545247, -0.5793357, 0.050620887, -0.48312026, -0.21414827, 0.18630162, -0.9637108, 0
1069, 1721007648, 0.6572428, -0.5827766, 0.056698456, -0.47454038, -0.30587006, 0.25434366, -0.8619671, 0
1070, 1721024315, 0.65975964, -0.585943, 0.06237962, -0.4663657, -0.2806945, 0.25567022, -0.81805897, 0
1071, 1721040982, 0.6620753, -0.5888683, 0.06750449, -0.4586214, -0.0025469302, 0.113737024, -0.7406378, 0
1072, 1721057649, 0.6642528, -0.5915821, 0.07278527, -0.4511111, 0.06546326, 0.042077657, -0.7346153, 0
1073, 1721074316, 0.6663925, -0.59423304, 0.07861815, -0.44342712, -0.035936914, 0.20010422, -0.8502884, 0
1074, 1721090983, 0.66835713, -0.59702295, 0.08444587, -0.43558168, -0.15902902, 0.3228229, -0.8695116, 0
1075, 1721107650, 0.67005616, -0.60001296, 0.0900491, -0.42766854, -0.27384797, 0.43288672, -0.8760958, 0
1076, 1721124317, 0.6713827, -0.60301745, 0.09557374, -0.4200965, -0.2939121, 0.34958923, -0.7709608, 0
1077, 1721140984, 0.67241246, -0.60590637, 0.100731604, -0.41302827, -0.5705074, 0.37326372, -0.592927, 0
1078, 1721157651, 0.67332524, -0.60865957, 0.105042405, -0.4063655, -0.82751894, 0.42832503, -0.54025364, 0
1079, 1721174318, 0.67426455, -0.6112312, 0.108442545, -0.400005, -0.85196626, 0.41571197, -0.57561684, 0
1080, 1721190985, 0.67525226, -0.61347073, 0.11160142, -0.39399633, -0.7086234, 0.31768635, -0.60244083, 0
1081, 1721207652, 0.67627555, -0.6153517, 0.115136854, -0.3882491, -0.58784676, 0.30268794, -0.6436205, 0
1082, 1721224319, 0.67711675, -0.6170222, 0.11902005, -0.38292405, -0.690937, 0.3431628, -0.6097479, 0
1083, 1721240986, 0.67775, -0.6185767, 0.122861974, -0.3780515, -0.80087596, 0.46086225, -0.48763847, 0
1084, 1721257653, 0.67830694, -0.61995965, 0.12639633, -0.3735959, -0.8082201, 0.45720738, -0.3600521, 0
1085, 1721274320, 0.678727, -0.6210573, 0.1296564, -0.36987427, -0.7159638, 0.36766765, -0.29348278, 0
1086, 1721290987, 0.67901057, -0.62187773, 0.1328283, -0.36683735, -0.7260294, 0.3560863, -0.31616306, 0
1087, 1721307654, 0.67916536, -0.62250024, 0.13584568, -0.3643817, -0.79652464, 0.40487808, -0.35958576, 0
1088, 1721324321, 0.67926425, -0.6229571, 0.13847224, -0.36242267, -0.95799756, 0.49039122, -0.3553295, 0
1089, 1721340988, 0.67944777, -0.6232326, 0.14060342, -0.3607806, -0.9212252, 0.51766497, -0.4920683, 0
1090, 1721357655, 0.6796157, -0.6234488, 0.14269188, -0.35926813, -0.92451674, 0.5169336, -0.5799608, 0
1091, 1721374322, 0.67965585, -0.62378466, 0.14420103, -0.35800385, -1.069883, 0.5374595, -0.50588226, 0
1092, 1721390989, 0.67964023, -0.6242121, 0.14461796, -0.35711905, -1.0914388, 0.45494387, -0.34530354, 0
1093, 1721407656, 0.67966187, -0.62445927, 0.14417802, -0.35682365, -0.8459218, 0.24704395, -0.32291317, 0
1094, 1721424323, 0.6797165, -0.6243182, 0.14371172, -0.35715434, -0.6768893, 0.091955915, -0.36629295, 0
1095, 1721440990, 0.67974025, -0.62393224, 0.14335936, -0.35792455, -0.6504733, 0.17088951, -0.43419552, 0
1096, 1721457657, 0.679712, -0.62339485, 0.14311494, -0.35901096, -0.7109995, 0.28651702, -0.44443893, 0
1097, 1721474324, 0.679548, -0.62280524, 0.1428932, -0.36042982, -0.8054105, 0.35309124, -0.2929821, 0
1098, 1721490991, 0.6792906, -0.62215626, 0.14230709, -0.3622633, -0.87398326, 0.40443507, -0.17332554, 0
1099, 1721507658, 0.6789959, -0.6212905, 0.14136449, -0.3646627, -0.8708571, 0.3936309, -0.114141464, 0
1100, 1721524325, 0.6786334, -0.620097, 0.14031531, -0.36776096, -0.85680956, 0.43699488, -0.19519615, 0
1101, 1721540992, 0.6782389, -0.6186382, 0.13892885, -0.37145343, -0.96918035, 0.51878184, -0.29724312, 0
1102, 1721557659, 0.6777872, -0.61709845, 0.13693231, -0.3755579, -1.0942963, 0.60797894, -0.3683691, 0
1103, 1721574326, 0.67730695, -0.61560243, 0.13419572, -0.37984294, -1.2039498, 0.63266414, -0.4891758, 0
1104, 1721590993, 0.6767984, -0.61414814, 0.13041554, -0.38439277, -1.2342745, 0.5914801, -0.4670391, 0
1105, 1721607660, 0.67629266, -0.6124882, 0.1256855, -0.3894737, -1.0989137, 0.47859466, -0.4520054, 0
1106, 1721624327, 0.6757757, -0.6103571, 0.120474815, -0.39531937, -0.8298659, 0.34783846, -0.49909878, 0
1107, 1721640994, 0.67522794, -0.6077399, 0.11557982, -0.40169722, -0.60423493, 0.25285083, -0.7050457, 0
1108, 1721657661, 0.6746197, -0.6047274, 0.111321576, -0.40841246, -0.5123771, 0.2343084, -0.83477974, 0
1109, 1721674328, 0.67377263, -0.60155773, 0.10749525, -0.41545588, -0.5441047, 0.22227626, -0.96025753, 0
1110, 1721690995, 0.6727101, -0.5982738, 0.10378807, -0.42279762, -0.6402815, 0.22435492, -0.97007656, 0
1111, 1721707662, 0.67149127, -0.5948006, 0.10016464, -0.43044066, -0.7534446, 0.21850984, -0.9865875, 0
1112, 1721724329, 0.67022425, -0.591045, 0.09630035, -0.4383965, -0.78404903, 0.30717856, -1.0138941, 0
1113, 1721740996, 0.6688331, -0.58705235, 0.0917236, -0.44678712, -0.55132866, 0.32505646, -1.0536776, 0
1114, 1721757663, 0.66731966, -0.58283085, 0.08690625, -0.45545593, -0.33702603, 0.28936905, -1.0487537, 0
1115, 1721774330, 0.66571766, -0.57834554, 0.08225953, -0.46429518, -0.19335625, 0.24861413, -0.98827267, 0
1116, 1721790997, 0.66387963, -0.57373345, 0.07744185, -0.47338858, -0.13335091, 0.26916346, -0.9377775, 0
1117, 1721807664, 0.66173756, -0.56917274, 0.07180758, -0.4826899, -0.1931718, 0.37908804, -0.8605709, 0
1118, 1721824331, 0.65942085, -0.5647568, 0.06509898, -0.49191067, -0.14595418, 0.27379286, -0.84468746, 0
1119, 1721840998, 0.6572032, -0.56009567, 0.058013946, -0.5010105, 0.051677257, 0.09202542, -0.5824585, 0
1120, 1721857665, 0.65501904, -0.5549271, 0.051144186, -0.5102846, 0.4284838, -0.1425664, -0.37874508, 0
1121, 1721874332, 0.6528164, -0.5492477, 0.045224644, -0.51972353, 0.60447055, -0.23601247, -0.41226196, 0
1122, 1721890999, 0.6503864, -0.5433945, 0.0397031, -0.52928627, 0.7805394, -0.1543319, -0.4491825, 0
1123, 1721907666, 0.64759415, -0.53769934, 0.03407085, -0.5388328, 0.69908315, -0.098658174, -0.32061005, 0
1124, 1721924333, 0.6447403, -0.53234524, 0.027923912, -0.5478494, 0.59510785, -0.05179421, -0.18619823, 0
1125, 1721941000, 0.64203835, -0.5271233, 0.02158572, -0.55629325, 0.49524447, -0.084538184, 0.06668377, 0
1126, 1721957667, 0.63945735, -0.5218942, 0.015509212, -0.56434053, 0.55287457, -0.09089668, 0.13641834, 0
1127, 1721974334, 0.6370252, -0.5167161, 0.010106459, -0.5719277, 0.5695576, 0.0027208233, 0.06855297, 0
1128, 1721991001, 0.6343672, -0.51198477, 0.0047353227, -0.579161, 0.53188765, 0.08570045, 0.03502369, 0
1129, 1722007668, 0.6311974, -0.5076979, -0.0011606629, -0.5863716, 0.42641866, -0.042159908, 0.3356886, 0
1130, 1722024335, 0.62790996, -0.50320756, -0.007155792, -0.5936836, 0.52819884, -0.2983594, 0.75308514, 0
1131, 1722041002, 0.6249559, -0.49804896, -0.012124374, -0.6010244, 0.753405, -0.53170985, 1.0386934, 0
1132, 1722057669, 0.6222206, -0.49256954, -0.01581893, -0.6082488, 0.8142666, -0.37420562, 1.0143967, 0
1133, 1722074336, 0.61935145, -0.4875602, -0.019424435, -0.61507046, 0.7119085, -0.16485153, 0.911849, 0
1134, 1722091003, 0.6162879, -0.48339957, -0.023625368, -0.62125355, 0.63425595, -0.12370638, 0.94635963, 0
1135, 1722107670, 0.61306185, -0.48000026, -0.02850414, -0.6268512, 0.59131247, -0.17919414, 1.1414337, 0
1136, 1722124337, 0.6096386, -0.47730076, -0.034380414, -0.63193583, 0.666224, -0.21357378, 1.3951702, 0
1137, 1722141004, 0.6061929, -0.47535267, -0.040663354, -0.6363304, 0.9561386, -0.50771683, 1.6107225, 0
1138, 1722157671, 0.603084, -0.47378874, -0.04585105, -0.6400874, 1.0836554, -0.77310026, 1.8407927, 0
1139, 1722174338, 0.6003784, -0.47241876, -0.04967474, -0.6433497, 0.9278504, -0.9199275, 1.9710045, 0
1140, 1722191005, 0.59813267, -0.47096947, -0.05245562, -0.64627665, 0.7277299, -0.9165252, 1.9836473, 0
1141, 1722207672, 0.5963811, -0.46945482, -0.054569233, -0.64881754, 0.5697548, -0.85133, 1.8016825, 0
1142, 1722224339, 0.59497315, -0.46796617, -0.05619006, -0.6510433, 0.46600884, -0.7133923, 1.4701653, 0
1143, 1722241006, 0.5937722, -0.46654648, -0.057454012, -0.6530453, 0.33032838, -0.5386993, 1.1476984, 0
1144, 1722257673, 0.5927181, -0.4652839, -0.05871279, -0.6547893, 0.14343184, -0.29713878, 0.86403847, 0
1145, 1722274340, 0.59164715, -0.4641704, -0.060243186, -0.6564072, 0.028110554, -0.13983306, 0.62118435, 0
1146, 1722291007, 0.5905362, -0.46314162, -0.061790403, -0.6579886, -0.02569776, -0.033212684, 0.40860462, 0
1147, 1722307674, 0.5894351, -0.46223137, -0.06329014, -0.65947175, -0.07858523, 0.026371846, 0.26142693, 0
1148, 1722324341, 0.58838046, -0.46137625, -0.06479759, -0.66086453, -0.1053587, 0.06661402, 0.15102863, 0
1149, 1722341008, 0.58732015, -0.4606507, -0.06632508, -0.662161, 0.0095529435, 0.10727415, 0.12740707, 0
1150, 1722357675, 0.5862972, -0.46011105, -0.067617595, -0.6633109, 0.07818947, 0.11913911, 0.11441326, 0
1151, 1722374342, 0.5852638, -0.45981982, -0.068848714, -0.66429824, -0.035574965, 0.12603694, 0.16063881, 0
1152, 1722391009, 0.5841905, -0.45954156, -0.07015482, -0.6652981, -0.098478466, 0.054908864, 0.25452232, 0
1153, 1722407676, 0.5831339, -0.45906374, -0.071502335, -0.6664104, -0.13495664, -0.010856918, 0.24983597, 0
1155, 1722441010, 0.5812052, -0.45749274, -0.074397594, -0.66885424, -0.07834271, -0.1046586, 0.141016, 0
1157, 1722474344, 0.57985646, -0.45577094, -0.07727745, -0.6708708, 0.050115347, -0.14184088, 0.20619488, 0
1159, 1722507678, 0.57918304, -0.4541923, -0.0783863, -0.67239285, 0.42093146, -0.34102803, 0.7591686, 0
1160, 1722524345, 0.57926995, -0.45353946, -0.0773503, -0.6728782, 0.36088923, -0.2586065, 0.9322853, 0
1162, 1722557679, 0.5793238, -0.4531046, -0.075530745, -0.6733316, -0.075665615, 0.014172956, 0.7068815, 0
1164, 1722591013, 0.5790134, -0.4534099, -0.0755471, -0.67339134, -0.09225827, -0.08843335, 0.30630112, 0
1165, 1722607680, 0.57891876, -0.4534538, -0.07562243, -0.6734345, -0.14559405, -0.0375808, 0.10100269, 0
1166, 1722624347, 0.5789221, -0.453265, -0.0756063, -0.6735606, -0.13160616, 0.010347085, -0.05005932, 0
1167, 1722641014, 0.5790027, -0.45280084, -0.07541976, -0.6738245, -0.105923966, 0.06925258, -0.10641861, 0
1168, 1722657681, 0.5791184, -0.45216542, -0.075087875, -0.67418873, -0.027963398, 0.07884822, -0.111154556, 0
