DeviceTag:,Xsens DOT 4,,,,,,,,,,,,,,,,,
FirmwareVersion:,1.3.0,,,,,,,,,,,,,,,,,
AppVersion:,2020.1.1,,,,,,,,,,,,,,,,,
Measurement Mode:,Sensor fusion Mode - Extended (Quaternion),,,,,,,,,,,,,,,,,
StartTime:,2020-06-16 16:50:55.976 +0200,,,,,,,,,,,,,,,,,
© Xsens Technologies B. V. 2005-2020,,,,,,,,,,,,,,,,,,,
PacketCounter,SampleTimeFine,Quat_W,Quat_X,Quat_Y,Quat_Z,FreeAcc_X,FreeAcc_Y,FreeAcc_Z,Status
1, 1224911426, 0.8077885, 0.48478433, 0.25657976, 0.21593727, -0.07679257, 0.08404311, 0.0448761, 0
2, 1224928093, 0.8064757, 0.48652452, 0.2569921, 0.21643959, -0.07882855, 0.016535936, 0.03198719, 0
3, 1224944760, 0.8058626, 0.48758295, 0.25752246, 0.21571016, 0.0023077712, -0.010954817, 0.049450874, 0
4, 1224961427, 0.80564237, 0.4880198, 0.25774157, 0.21528207, 0.032198828, -0.04278172, 0.038360596, 0
5, 1224978094, 0.8056328, 0.48809135, 0.25784242, 0.2150348, 0.046492036, -0.02271875, 0.04081726, 0
6, 1224994761, 0.805661, 0.4880588, 0.25787914, 0.21495937, 0.020280896, 0.006764396, -0.025063515, 0
7, 1225011428, 0.8056735, 0.48798123, 0.25798124, 0.21496578, 0.0049812095, -0.0033142501, -0.009758949, 0
8, 1225028095, 0.8057037, 0.4879323, 0.2580367, 0.21489742, 0.06717995, -0.062896095, 0.0059900284, 0
9, 1225044762, 0.8057935, 0.48777848, 0.25810274, 0.21483079, 0.049125243, -0.021718306, 0.025852203, 0
10, 1225061429, 0.8058944, 0.48756552, 0.25822166, 0.21479277, 0.012264603, 0.07638421, 0.035765648, 0
11, 1225078096, 0.8059494, 0.48743168, 0.25829187, 0.21480577, -0.041055307, 0.06336816, 0.039349556, 0
12, 1225094763, 0.8059765, 0.4874011, 0.2582888, 0.21477689, 0.0032753588, -0.014441619, 0.0033159256, 0
13, 1225111430, 0.8059835, 0.48740545, 0.2583115, 0.21471356, -0.0063911295, -0.03840489, 0.005431175, 0
14, 1225128097, 0.80601674, 0.48735815, 0.2583445, 0.21465668, -0.011694645, -0.01844563, -0.04181099, 0
15, 1225144764, 0.8060989, 0.48720047, 0.25842792, 0.21460576, -0.020290507, 0.018478263, -0.053830147, 0
16, 1225161431, 0.8061944, 0.48701093, 0.2585255, 0.21455911, -0.004270215, 0.013340594, -0.05470276, 0
17, 1225178098, 0.8062415, 0.4869087, 0.2586427, 0.21447322, -0.022938464, -0.0041180025, -0.042780876, 0
18, 1225194765, 0.80628455, 0.4869539, 0.25863746, 0.21421492, -0.03741495, -0.015854668, -0.03661251, 0
19, 1225211432, 0.80626994, 0.48694715, 0.25869218, 0.21421954, -0.05186685, -5.386662E-4, -0.011550903, 0
20, 1225228099, 0.80618477, 0.48686016, 0.25888067, 0.21450968, 0.009256119, -0.013883283, 0.010145187, 0
21, 1225244766, 0.80620366, 0.48683336, 0.25887352, 0.21450782, 0.027199067, -0.0059633255, 0.036362648, 0
22, 1225261433, 0.8063127, 0.48678496, 0.25878528, 0.21431437, 0.009155985, -0.021439362, 0.020763397, 0
23, 1225278100, 0.80635446, 0.4866953, 0.2588405, 0.21429436, 0.03259087, -0.010179674, -0.024216652, 0
24, 1225294767, 0.8063729, 0.4866529, 0.25894082, 0.21420021, -0.019400924, -0.005088049, -0.04824257, 0
25, 1225311434, 0.8063636, 0.48663747, 0.25907868, 0.214103, -0.04492342, -0.06618174, -0.011271477, 0
26, 1225328101, 0.806371, 0.48660058, 0.25919122, 0.21402262, -0.039924107, -0.04864938, 0.026755333, 0
27, 1225344768, 0.8064064, 0.486385, 0.25934651, 0.21419132, 0.0045621227, -0.03597754, 0.042505264, 0
28, 1225361435, 0.80671656, 0.4865527, 0.25884017, 0.21325257, 0.05645937, -0.030045059, 0.009255409, 0
30, 1225394769, 0.8071244, 0.48678505, 0.25816828, 0.21199007, 0.010848871, 0.018477816, -0.011066437, 0
32, 1225428103, 0.8068423, 0.48614773, 0.25895193, 0.2135645, -0.02488392, -0.03613802, -0.03834343, 0
34, 1225461437, 0.8067397, 0.48570076, 0.25946054, 0.21435085, -0.02491253, -0.0048564896, -0.048945427, 0
35, 1225478104, 0.8067351, 0.485568, 0.25961515, 0.2144818, -0.0058573806, -2.7179177E-4, -0.050188065, 0
37, 1225511438, 0.8075532, 0.48675692, 0.25776228, 0.21091308, -0.01871988, 0.027505057, 0.015955925, 0
39, 1225544772, 0.8094651, 0.4891384, 0.25328243, 0.20336689, 0.01857348, -0.010012039, -0.022286415, 0
43, 1225611440, 0.80776066, 0.48705, 0.2572938, 0.2100122, -0.008355138, 0.0045243492, 0.015167236, 0
44, 1225628107, 0.8077401, 0.48706484, 0.25735408, 0.20998277, -0.053204577, -0.001655784, 0.017532349, 0
46, 1225661441, 0.8077247, 0.48712596, 0.25728598, 0.20998356, 0.0034948485, -0.035855502, 0.05587864, 0
48, 1225694775, 0.8078383, 0.48693472, 0.25718275, 0.21011692, 0.047810987, -0.015537727, -0.022867203, 0
50, 1225728109, 0.80785406, 0.48686603, 0.25719213, 0.21020405, -0.0037670874, -0.0068752584, -0.012268066, 0
52, 1225761443, 0.8078456, 0.48673716, 0.25729108, 0.21041389, 0.006765737, -0.020240886, -0.018095016, 0
53, 1225778110, 0.80787534, 0.48675364, 0.25721094, 0.2103594, 0.0020044642, -0.03489082, -0.0030078888, 0
55, 1225811444, 0.8079759, 0.48681593, 0.2569489, 0.21014944, -0.016591813, 0.016716087, -0.032380104, 0
57, 1225844778, 0.80812955, 0.48681363, 0.2567352, 0.20982456, 0.034287557, 0.02313672, -0.023319244, 0
59, 1225878112, 0.8081431, 0.486864, 0.25668576, 0.2097157, -0.033593997, 0.029039698, 0.007101059, 0
62, 1225928113, 0.808167, 0.48693582, 0.2564632, 0.2097296, -0.0047340044, -0.04028061, -0.019804955, 0
64, 1225961447, 0.80820924, 0.48689318, 0.25642154, 0.20971657, 0.021028323, -0.0076919748, -0.0057907104, 0
66, 1225994781, 0.8083109, 0.48685816, 0.25625634, 0.20960784, -0.024270378, -0.01434238, 0.020376205, 0
68, 1226028115, 0.80840933, 0.4868397, 0.2560922, 0.20947188, 0.047315232, 0.008523443, -0.044755936, 0
70, 1226061449, 0.80833775, 0.48683658, 0.25622827, 0.20958866, 0.009561661, 5.7174615E-4, 0.00914669, 0
71, 1226078116, 0.80834407, 0.4868415, 0.25622743, 0.20955402, -0.023644095, -0.02958641, 0.0048742294, 0
73, 1226111450, 0.8084759, 0.48684165, 0.25603756, 0.2092774, -0.027104968, 0.0029257846, -0.021194458, 0
75, 1226144784, 0.8085166, 0.4868698, 0.25593293, 0.20918226, -0.021933326, -0.026876539, 0.020385742, 0
77, 1226178118, 0.80865705, 0.48690316, 0.2556184, 0.20894596, 0.008471588, -0.0053584995, 0.023732185, 0
79, 1226211452, 0.808782, 0.48680028, 0.2554534, 0.20890424, 0.058807824, -0.0078649735, -0.030462265, 0
82, 1226261453, 0.8088611, 0.4866468, 0.25557, 0.20881239, 0.0018142547, -0.012025891, -0.020652771, 0
84, 1226294787, 0.8088567, 0.48669612, 0.25557274, 0.20871119, -0.034846786, 0.014967321, -0.05265522, 0
86, 1226328121, 0.80883694, 0.48677415, 0.25548223, 0.20871715, 0.024631575, 0.0012154635, 0.0048646927, 0
88, 1226361455, 0.80882215, 0.48690265, 0.25533858, 0.20865029, 0.043219805, 2.6195718E-4, -0.024534225, 0
89, 1226378122, 0.8087799, 0.48700938, 0.25534084, 0.2085622, -0.026409844, -0.02549523, -0.017076492, 0
91, 1226411456, 0.808729, 0.48701158, 0.2555357, 0.20851587, 0.012610154, 0.046673976, 0.018188477, 0
93, 1226444790, 0.80869246, 0.48704514, 0.2556205, 0.20847563, 0.039239265, -0.053666353, 0.009794235, 0
95, 1226478124, 0.80866313, 0.48720708, 0.25548518, 0.20837598, -0.07758179, 0.022404492, -0.045300484, 0
97, 1226511458, 0.8086755, 0.48733968, 0.25528786, 0.20826012, 0.023828046, -0.049206376, -0.007191658, 0
98, 1226528125, 0.8086725, 0.48735124, 0.25529325, 0.20823842, 0.007920852, -0.0030066962, -0.0032930374, 0
100, 1226561459, 0.8086617, 0.48736495, 0.25535098, 0.20817699, 0.016259898, -0.0051318575, -4.339218E-4, 0
102, 1226594793, 0.8085695, 0.4875301, 0.25534666, 0.20815374, 0.008802387, -0.0061819213, -0.015405655, 0
104, 1226628127, 0.8085562, 0.4874793, 0.25546357, 0.20818111, 0.021307044, -0.007887772, -0.02421093, 0
106, 1226661461, 0.80849653, 0.48762766, 0.25545213, 0.20807904, -0.010907879, -0.0024796526, 0.027173996, 0
107, 1226678128, 0.8085074, 0.48768154, 0.255378, 0.20800199, 0.0030326238, -0.017514922, 0.0160141, 0
109, 1226711462, 0.80844223, 0.48777732, 0.25547454, 0.20791219, 0.0024197514, 0.023253394, 0.011814117, 0
111, 1226744796, 0.8084413, 0.4877741, 0.25553486, 0.2078487, 0.022904044, -0.039845206, 0.005045891, 0
113, 1226778130, 0.8083961, 0.4878458, 0.25560308, 0.20777234, -0.03832599, 0.007909229, -0.044402122, 0
115, 1226811464, 0.8083686, 0.48798862, 0.25551173, 0.20765609, -0.0064085633, 0.007821165, 0.028134346, 0
118, 1226861465, 0.8083839, 0.48804316, 0.25539577, 0.20761134, 0.051302034, 0.015433569, -0.030262947, 0
120, 1226894799, 0.80831075, 0.48813564, 0.25548136, 0.20757319, -0.052940384, 0.020508207, -0.04145527, 0
122, 1226928133, 0.80826885, 0.4882333, 0.25547314, 0.2075172, -0.034258947, -0.019066103, -0.0041360855, 0
124, 1226961467, 0.8082983, 0.4882608, 0.25535733, 0.20747997, 0.03652425, 0.004711206, 0.033521652, 0
125, 1226978134, 0.8083275, 0.4882916, 0.25527397, 0.20739637, 0.04085638, 0.022145217, -0.0077962875, 0
127, 1227011468, 0.80832475, 0.48838815, 0.25518867, 0.20728464, -0.022716964, 0.008581109, -0.007250786, 0
131, 1227078136, 0.80839485, 0.48842797, 0.25501096, 0.20713645, -0.0057226024, -0.014204249, 0.010918617, 0
133, 1227111470, 0.80848706, 0.48840937, 0.25484455, 0.20702496, 0.010961746, -0.00396959, -0.010061264, 0
134, 1227128137, 0.80853844, 0.4883692, 0.25478286, 0.20699473, 0.046730302, -0.018233294, -0.03793049, 0
136, 1227161471, 0.80854595, 0.48838955, 0.25482374, 0.2068677, 0.014731739, 0.056995805, -0.032629013, 0
140, 1227228139, 0.8085721, 0.48836267, 0.2549169, 0.2067137, 0.004070394, -0.004365208, 0.010716438, 0
142, 1227261473, 0.80855465, 0.48835406, 0.25496942, 0.2067376, 0.020385724, 0.043436613, -0.019936562, 0
143, 1227278140, 0.808532, 0.48839504, 0.25497544, 0.20672192, -0.0113855265, 0.009285622, -0.02449131, 0
145, 1227311474, 0.8085183, 0.48842463, 0.25498557, 0.20669314, 0.010741139, -0.049936816, 0.016604424, 0
147, 1227344808, 0.80855113, 0.4884472, 0.25490162, 0.20661485, -0.014157535, 0.0062029315, -1.9645691E-4, 0
149, 1227378142, 0.8085507, 0.48848364, 0.2548809, 0.20655636, 0.048885413, -0.04171735, 0.023602486, 0
151, 1227411476, 0.8086374, 0.48833546, 0.25487453, 0.20657542, 0.009214098, 0.025680745, -0.017842293, 0
152, 1227428143, 0.8086783, 0.4882777, 0.25487322, 0.20655333, 0.017070131, 0.03790154, -0.039862633, 0
154, 1227461477, 0.80864584, 0.48827702, 0.2550398, 0.20647565, -0.017508216, 0.0041506356, -0.0029659271, 0
156, 1227494811, 0.8086963, 0.4882309, 0.2549913, 0.20644695, -0.0045433477, -0.0017389308, 0.0052022934, 0
160, 1227561479, 0.80887383, 0.48815098, 0.2547303, 0.20626272, 0.012448777, 0.020206911, -0.007461548, 0
161, 1227578146, 0.8089679, 0.48809347, 0.25461897, 0.20616794, 0.0300274, 0.011449228, 0.024559021, 0
163, 1227611480, 0.8090572, 0.48813832, 0.25438467, 0.20600055, -0.01292866, 0.039925672, 0.0015611649, 0
165, 1227644814, 0.80909777, 0.4881914, 0.25421718, 0.20592172, 0.03044917, 0.0062695383, -0.019976616, 0
167, 1227678148, 0.80912083, 0.48818257, 0.25420713, 0.20586427, -0.006660239, -0.0011260583, -0.049898148, 0
169, 1227711482, 0.8092334, 0.48809445, 0.2541533, 0.20569743, 0.03220911, -0.026037918, 0.026311874, 0
170, 1227728149, 0.8092889, 0.48805, 0.25410053, 0.20564988, 0.026826695, -0.01638931, 0.010399818, 0
172, 1227761483, 0.809425, 0.48792857, 0.25401518, 0.20550755, 0.020692158, 0.006403646, 0.015229225, 0
174, 1227794817, 0.8095309, 0.4878239, 0.25398988, 0.20536967, 0.031902004, 0.0016365618, -0.020939827, 0
176, 1227828151, 0.8095922, 0.4877301, 0.25406793, 0.20525485, -0.038673554, 0.014890433, -0.0025262833, 0
179, 1227878152, 0.80980855, 0.48764408, 0.25380507, 0.20493078, -0.0039054418, 0.012096074, -0.0098695755, 0
181, 1227911486, 0.80991334, 0.48747444, 0.25385568, 0.20485784, 0.023258535, 0.02989173, -0.075146675, 0
183, 1227944820, 0.8098551, 0.48757607, 0.25398955, 0.2046796, 0.042164378, 0.015352211, -0.024931908, 0
185, 1227978154, 0.80981857, 0.48761696, 0.25410283, 0.20458621, -0.003227527, 0.05261629, 7.362366E-4, 0
187, 1228011488, 0.8098265, 0.48761988, 0.2541516, 0.20448767, -0.010142571, -0.02688235, 0.03822422, 0
188, 1228028155, 0.80987304, 0.48765793, 0.25401977, 0.20437637, 0.039598227, -0.03867579, 0.037459373, 0
190, 1228061489, 0.8099336, 0.4877225, 0.25387624, 0.20416039, -0.00610995, 0.013845733, -0.021930695, 0
192, 1228094823, 0.80998635, 0.48766157, 0.25388667, 0.20408347, -0.014844837, 0.007952591, 0.01274395, 0
194, 1228128157, 0.8100719, 0.48767802, 0.2537221, 0.2039094, -4.7496503E-4, -0.018062528, 0.0045633316, 0
196, 1228161491, 0.81020814, 0.4875996, 0.25353053, 0.20379359, 0.03178779, -0.007092066, -0.0128183365, 0
197, 1228178158, 0.81024843, 0.48757276, 0.2534852, 0.2037543, 0.019281121, 0.019889524, -0.054789543, 0
199, 1228211492, 0.8103191, 0.4874592, 0.25351477, 0.20370756, 0.04450858, 4.7205936E-4, -0.042622566, 0
201, 1228244826, 0.81032926, 0.48741245, 0.2535805, 0.20369743, -0.04903047, 0.017879248, -0.0021543503, 0
203, 1228278160, 0.8103856, 0.4874288, 0.2534184, 0.20363627, 0.028007291, -0.028522935, -0.033699036, 0
205, 1228311494, 0.81044394, 0.48738602, 0.2533326, 0.20361325, -0.023516692, 0.05250409, -0.05884266, 0
206, 1228328161, 0.81045336, 0.48738438, 0.25331235, 0.2036043, 0.033355508, 0.0013540415, -0.025087357, 0
208, 1228361495, 0.8104121, 0.4875286, 0.2532871, 0.20345499, -0.008492151, 0.057043187, 0.0052928925, 0
210, 1228394829, 0.8103889, 0.487511, 0.2533659, 0.20349167, 0.021757869, -0.018929312, 5.617142E-4, 0
212, 1228428163, 0.8103649, 0.48767185, 0.2532034, 0.20340374, -0.021306597, 0.0153338825, -0.03444481, 0
215, 1228478164, 0.8103867, 0.48780853, 0.25293475, 0.20332341, 0.022051342, -0.011912347, -0.025101662, 0
217, 1228511498, 0.81028086, 0.48798975, 0.2529432, 0.20329998, 0.042161696, 0.020603424, 0.008741379, 0
219, 1228544832, 0.81020933, 0.4880113, 0.25310686, 0.20332953, 0.015461062, -0.02246484, 0.032917023, 0
221, 1228578166, 0.81020284, 0.48808262, 0.25305128, 0.20325351, -0.0159776, -0.007845305, 0.033341408, 0
223, 1228611500, 0.81034267, 0.48798397, 0.25287974, 0.20314662, -0.013902506, -0.0033790688, -0.0031518936, 0
226, 1228661501, 0.8104583, 0.48793307, 0.25273943, 0.20298195, 0.01435646, 0.038205963, -0.05875683, 0
228, 1228694835, 0.810425, 0.48791137, 0.2529098, 0.20295507, 0.03152069, 0.014796111, -0.06787586, 0
230, 1228728169, 0.81030726, 0.48800763, 0.25318027, 0.2028564, -0.022563186, 0.0038797378, 0.001953125, 0
233, 1228778170, 0.8103406, 0.488146, 0.25291303, 0.20272389, 0.007149732, 0.020311963, -0.0048913956, 0
235, 1228811504, 0.8103047, 0.4882183, 0.25287127, 0.20274524, 0.015047562, -0.025285127, -0.017971992, 0
239, 1228878172, 0.810304, 0.4881565, 0.25300416, 0.2027311, 0.014637416, -0.018088456, 0.029453278, 0
241, 1228911506, 0.8103305, 0.48820516, 0.25289083, 0.20264903, -0.00479033, -0.012996831, -0.014391899, 0
242, 1228928173, 0.8103993, 0.48819757, 0.2527431, 0.20257713, 0.00922505, -0.018604772, -0.011071205, 0
244, 1228961507, 0.81048924, 0.48807898, 0.25272664, 0.20252325, 0.030847693, 0.01961371, -0.014582634, 0
246, 1228994841, 0.81048816, 0.4880819, 0.2528202, 0.2024034, -0.030026283, 0.06626175, -0.044115067, 0
248, 1229028175, 0.81041, 0.48817548, 0.2528958, 0.202396, 0.02386269, -0.0019897122, -0.0027198792, 0
250, 1229061509, 0.81042105, 0.48812363, 0.25290415, 0.20246646, -0.0041039214, -0.00778585, -0.013121605, 0
251, 1229078176, 0.8104403, 0.48811755, 0.2528783, 0.20243658, 0.026649226, -0.017822923, -0.022813797, 0
253, 1229111510, 0.81045324, 0.48812354, 0.25291637, 0.202323, 0.0016602542, 0.010701354, -0.00924015, 0
255, 1229144844, 0.8104417, 0.48820546, 0.25290063, 0.2021909, -0.024038147, 0.030087527, -0.004149437, 0
259, 1229211512, 0.8105016, 0.48823035, 0.25284475, 0.201961, 0.036427025, 0.008139895, -0.024837494, 0
260, 1229228179, 0.810516, 0.4882559, 0.25281265, 0.20188123, -0.02065215, 0.02677104, -0.025130272, 0
262, 1229261513, 0.8105146, 0.48824042, 0.25287282, 0.2018488, -0.037704177, -0.009453257, -0.002737999, 0
264, 1229294847, 0.81052303, 0.4882786, 0.2528715, 0.20172405, 0.008163364, 0.0036490725, 0.015353203, 0
266, 1229328181, 0.8105921, 0.4882821, 0.25276783, 0.20156775, -8.1805745E-5, 0.013072826, 0.007115364, 0
268, 1229361515, 0.81065536, 0.48821726, 0.2527617, 0.201478, 0.07905899, -0.0018676743, 0.010164261, 0
269, 1229378182, 0.810674, 0.4882126, 0.25275517, 0.20142291, 0.021109682, 0.026826471, -0.02034092, 0
271, 1229411516, 0.8107643, 0.48815343, 0.25265852, 0.20132414, -0.050719783, 0.0014143899, -0.016739845, 0
273, 1229444850, 0.8109041, 0.4881071, 0.25242034, 0.20117243, 0.012899156, -0.018608348, -0.06074524, 0
275, 1229478184, 0.81091964, 0.48811132, 0.25247097, 0.20103516, 0.020217193, 0.06262967, -0.045262337, 0
278, 1229528185, 0.810861, 0.48809966, 0.2527008, 0.20101169, 0.0023039714, -0.032462128, 0.021625519, 0
280, 1229561519, 0.81088686, 0.48820695, 0.2524772, 0.20092773, -0.045676436, -0.031117473, 0.014713287, 0
282, 1229594853, 0.8110484, 0.488106, 0.2522218, 0.20084214, -0.018291406, -0.004449249, -0.029589653, 0
284, 1229628187, 0.8111287, 0.48801246, 0.25221208, 0.20075756, 0.027227007, -0.024407614, 0.005340576, 0
286, 1229661521, 0.81112295, 0.4880242, 0.2522523, 0.20070066, 0.014126466, 0.029680733, -0.006286621, 0
287, 1229678188, 0.81115574, 0.4879603, 0.2522551, 0.2007208, 0.025148336, 0.018977145, -0.0037727356, 0
291, 1229744856, 0.8111979, 0.4880549, 0.25206152, 0.20056279, 0.0027927945, 0.01733343, -0.015298843, 0
293, 1229778190, 0.8112575, 0.4879874, 0.25205562, 0.2004935, -0.012810645, 0.04205128, -8.7451935E-4, 0
295, 1229811524, 0.8111897, 0.48802888, 0.25216234, 0.20053275, 0.012250521, -0.015493471, -0.0067329407, 0
296, 1229828191, 0.8111701, 0.48808128, 0.2521472, 0.20050383, -0.00647517, -0.021021841, -0.027804375, 0
298, 1229861525, 0.8111903, 0.48814794, 0.2520288, 0.20040807, 0.017054262, -0.021727694, 0.0036497116, 0
300, 1229894859, 0.81119084, 0.48818663, 0.25199685, 0.20035201, 0.016236875, 0.024510877, -3.299713E-4, 0
302, 1229928193, 0.81118447, 0.48830923, 0.2519148, 0.20018204, -0.02772276, 0.008035291, -0.025993347, 0
304, 1229961527, 0.81114954, 0.4883316, 0.25198454, 0.20018151, 0.03141363, -0.021163994, -0.012047768, 0
305, 1229978194, 0.811147, 0.48837906, 0.25195476, 0.20011392, 0.04080564, -0.0114545915, 0.0058612823, 0
307, 1230011528, 0.81119573, 0.48841828, 0.25178576, 0.20003292, 7.8542455E-4, 0.031705312, -0.023932457, 0
309, 1230044862, 0.81113684, 0.48840007, 0.25193197, 0.20013238, 0.0011193529, 0.01409875, 0.0020170212, 0
311, 1230078196, 0.81111175, 0.4885152, 0.25189325, 0.20000139, 0.011018965, -0.020637399, 0.0011930466, 0
313, 1230111530, 0.81107944, 0.48861042, 0.25187576, 0.1999215, -0.021950984, 0.010181015, 0.0048503876, 0
316, 1230161531, 0.81110287, 0.48875305, 0.2516623, 0.19974686, 0.0055366396, -0.009126928, -0.0021896362, 0
318, 1230194865, 0.81119967, 0.48864064, 0.25157863, 0.19973405, -0.052788842, 0.03713623, -0.008122444, 0
320, 1230228199, 0.81122124, 0.48859334, 0.2515652, 0.1997788, 0.040195677, 0.00829233, -0.07387829, 0
322, 1230261533, 0.81116503, 0.48866805, 0.2516488, 0.19971915, 0.027884359, 0.0015945415, -0.012419701, 0
323, 1230278200, 0.81114316, 0.4887257, 0.25164312, 0.1996746, 0.014505097, 0.003312015, 0.016989708, 0
327, 1230344868, 0.81118566, 0.4887575, 0.2514948, 0.19961081, -0.008797917, -0.032539017, 0.0036907196, 0
329, 1230378202, 0.8112563, 0.48874146, 0.251352, 0.19954316, -0.04700701, 0.014569916, -0.039357185, 0
331, 1230411536, 0.81132793, 0.48861718, 0.25136036, 0.19954553, 0.019259665, 0.014329416, -0.0077524185, 0
332, 1230428203, 0.81130654, 0.48865262, 0.25137138, 0.19953223, 0.043106932, -0.008949459, -9.832382E-4, 0
334, 1230461537, 0.8113018, 0.4887202, 0.2512939, 0.19948277, 0.02343891, -0.020138517, -0.005979538, 0
338, 1230528205, 0.8114065, 0.48858696, 0.25123212, 0.19946173, -0.024309045, 0.018996812, -0.01618576, 0
340, 1230561539, 0.81141144, 0.4885714, 0.25127584, 0.19942452, -0.018129807, 0.015794767, -0.0047101974, 0
341, 1230578206, 0.8113882, 0.4885991, 0.25130197, 0.199418, 0.015470896, -0.018239105, 0.027274132, 0
343, 1230611540, 0.811424, 0.4886678, 0.25112575, 0.19932605, -0.017360922, 0.025600728, 8.993149E-4, 0
345, 1230644874, 0.8114547, 0.48867026, 0.25103632, 0.19930778, 0.0059166113, -0.01750017, -0.017150879, 0
347, 1230678208, 0.8114752, 0.4886654, 0.25106207, 0.1992037, 0.009297469, -0.0015838128, -0.006292343, 0
349, 1230711542, 0.8115058, 0.48865598, 0.25107473, 0.19908655, -0.004494622, 0.024610564, -0.004406929, 0
350, 1230728209, 0.81149256, 0.48867932, 0.25107414, 0.19908378, 0.008668056, 0.013201122, -0.018762589, 0
352, 1230761543, 0.8114742, 0.48880246, 0.25096193, 0.19899763, 0.018822026, 0.013914576, -0.032057762, 0
354, 1230794877, 0.81149995, 0.4887946, 0.2509243, 0.19895928, -0.01679387, -0.0097170025, 0.0046138763, 0
358, 1230861545, 0.8114965, 0.48887056, 0.25094676, 0.19875853, 0.03869613, -0.033884116, 0.029457092, 0
359, 1230878212, 0.81152207, 0.48887008, 0.25092867, 0.19867778, 0.019106558, -0.027963705, 0.010936737, 0
361, 1230911546, 0.8115787, 0.48885858, 0.2508595, 0.19856241, 0.02199658, 0.005401414, -0.0067300797, 0
363, 1230944880, 0.8116571, 0.4887646, 0.2508495, 0.19848631, -0.029849261, 0.029447384, -0.0077171326, 0
365, 1230978214, 0.81178284, 0.48870832, 0.25066227, 0.19834675, 0.015797896, -0.02851623, 0.012161255, 0
367, 1231011548, 0.8118818, 0.4887101, 0.2504491, 0.19820663, 0.027975105, 0.016839914, -0.04273224, 0
368, 1231028215, 0.8119154, 0.4887067, 0.25039417, 0.19814679, 0.024789598, 0.0064107985, -0.048495293, 0
370, 1231061549, 0.81192255, 0.48867223, 0.25044715, 0.19813561, -0.024675831, 0.017503299, -0.03524685, 0
372, 1231094883, 0.8118999, 0.48873478, 0.2504583, 0.19806, 0.04371176, 0.017033027, 0.043444633, 0
374, 1231128217, 0.8119724, 0.48877978, 0.2502193, 0.1979541, -0.027824234, 0.020109013, -0.01565075, 0
377, 1231178218, 0.8120137, 0.48873344, 0.25016108, 0.19797207, 0.005658454, -0.007780933, -0.019033432, 0
379, 1231211552, 0.81206846, 0.4886706, 0.2501108, 0.19796656, -0.019551124, -0.010533718, 0.021950722, 0
381, 1231244886, 0.81212324, 0.4886382, 0.25003242, 0.19792072, 0.030862445, -0.004018316, 0.018230438, 0
383, 1231278220, 0.81223214, 0.48854804, 0.24990514, 0.19785686, 0.027370056, -0.031287342, -0.0151577, 0
385, 1231311554, 0.812269, 0.48852715, 0.24985793, 0.19781715, -0.0132431425, 0.0032677595, -0.031068802, 0
386, 1231328221, 0.81233793, 0.48845878, 0.24980211, 0.19777334, -0.0034490284, 0.015694186, -0.006217003, 0
388, 1231361555, 0.81243587, 0.48838347, 0.24965882, 0.19773825, -0.032399096, 0.030826014, 0.021997452, 0
390, 1231394889, 0.81244355, 0.4883997, 0.24963562, 0.19769488, 0.0065806685, -0.011196211, -0.033922195, 0
392, 1231428223, 0.81249255, 0.4883532, 0.24962428, 0.19762294, 0.015122216, -0.025775962, -0.013791084, 0
394, 1231461557, 0.81255335, 0.48826975, 0.24963959, 0.19756018, 0.0211108, 0.020239992, -0.017394066, 0
395, 1231478224, 0.81255597, 0.48828968, 0.24962232, 0.19752191, 0.013470008, 0.045617208, -0.053894997, 0
397, 1231511558, 0.81251496, 0.48839027, 0.24961473, 0.19745171, 0.03483427, -0.020549782, -0.015346527, 0
399, 1231544892, 0.8124705, 0.4885282, 0.24953891, 0.19738926, 0.001517206, 0.027992316, -0.020035744, 0
401, 1231578226, 0.8123963, 0.48867851, 0.24953336, 0.1973298, -0.007917946, 0.015464415, -0.017178535, 0
403, 1231611560, 0.81228864, 0.48867762, 0.24986066, 0.19736089, 0.04328306, -0.0049083447, 0.04475975, 0
404, 1231628227, 0.8122491, 0.48866823, 0.25004497, 0.19731323, 0.07018687, 0.011109488, 0.107411385, 0
406, 1231661561, 0.81230044, 0.4886546, 0.2500922, 0.19707513, -0.075790115, 0.01920021, 0.12414074, 0
408, 1231694895, 0.8126609, 0.48836818, 0.2496841, 0.19681656, -0.03976832, -0.065807134, 0.0027198792, 0
410, 1231728229, 0.8130467, 0.48811042, 0.24916746, 0.19651753, -0.023883253, 0.0010666038, -0.08851433, 0
413, 1231778230, 0.81345063, 0.48769024, 0.24871245, 0.19646573, 0.06469158, 0.023071008, -0.02798462, 0
415, 1231811564, 0.8135898, 0.48767108, 0.24820334, 0.1965808, 0.0155109055, 0.03510852, -0.060682297, 0
417, 1231844898, 0.8138749, 0.48742086, 0.24756593, 0.19682404, 0.037728317, -0.012822938, 0.031218529, 0
419, 1231878232, 0.81429213, 0.4869706, 0.24677086, 0.19721168, 0.040279493, -0.027962811, -0.02380848, 0
421, 1231911566, 0.81472635, 0.48629522, 0.24618465, 0.19781649, 0.008376818, -0.042353023, -0.03625393, 0
422, 1231928233, 0.81494075, 0.48596337, 0.24593097, 0.19806415, -0.005035747, -0.12152444, -0.01000309, 0
424, 1231961567, 0.8156796, 0.485018, 0.24513286, 0.19832891, -0.055006314, -0.124191396, 0.0021572113, 0
426, 1231994901, 0.81605804, 0.48452303, 0.24467763, 0.19854443, 0.02130302, -0.012979845, -0.06288147, 0
428, 1232028235, 0.8161779, 0.48425204, 0.24471892, 0.19866122, 0.04270796, -0.04710804, -0.015703201, 0
430, 1232061569, 0.8161404, 0.48426166, 0.24474141, 0.19876419, -0.01810142, 0.048479065, -0.05426979, 0
433, 1232111570, 0.8159054, 0.4844517, 0.24485974, 0.19911978, 0.023375431, 0.021168018, -0.04113102, 0
435, 1232144904, 0.81570816, 0.48467314, 0.24484733, 0.19940445, -0.056150254, 0.054679316, -0.06409073, 0
437, 1232178238, 0.815496, 0.48487875, 0.24488616, 0.19972482, -0.0021034805, 0.040142927, -0.00578022, 0
439, 1232211572, 0.8152309, 0.48527038, 0.24475923, 0.20001025, -0.017953232, 0.013105012, -0.0038776398, 0
440, 1232228239, 0.8151327, 0.48540014, 0.2446674, 0.20020825, -0.021026088, 0.012881052, -0.0041065216, 0
442, 1232261573, 0.8149468, 0.48566172, 0.24444498, 0.20060256, 0.05317619, 0.009226168, -0.062758446, 0
444, 1232294907, 0.8147276, 0.4858785, 0.24439093, 0.20103331, 0.07669288, 0.03308394, 0.01269722, 0
446, 1232328241, 0.8144676, 0.4862571, 0.24415626, 0.20145561, 0.042924546, 0.021395108, -0.0146512985, 0
448, 1232361575, 0.8141841, 0.48662224, 0.24408351, 0.20180805, -0.06649086, 0.039695453, 0.12055397, 0
449, 1232378242, 0.81414104, 0.48660985, 0.24398965, 0.20212522, 0.028748013, -0.027948953, 0.09803009, 0
453, 1232444910, 0.8139608, 0.486557, 0.24390185, 0.2030818, 0.02491566, -0.03190558, -0.03045082, 0
455, 1232478244, 0.8138378, 0.4864253, 0.24430749, 0.20340252, -0.016677419, -0.061877325, 0.01392746, 0
457, 1232511578, 0.8137097, 0.48652208, 0.2444566, 0.2035045, -0.015783144, -0.037110303, 0.061720848, 0
458, 1232528245, 0.81372434, 0.48650327, 0.24444917, 0.20349988, 0.039236806, -0.031691454, 0.06023407, 0
460, 1232561579, 0.81377846, 0.4863925, 0.24449651, 0.20349108, 0.07220475, 0.053712398, 0.0021572113, 0
462, 1232594913, 0.8136909, 0.48625696, 0.245008, 0.20355025, -0.085605465, 0.024632916, 0.03223133, 0
464, 1232628247, 0.81374013, 0.48615414, 0.24515411, 0.20342301, -0.050061986, -0.02994716, 0.03584194, 0
466, 1232661581, 0.81391376, 0.4859593, 0.24518292, 0.20315905, -0.025467513, 0.02787296, -0.023965836, 0
467, 1232678248, 0.8140018, 0.48582724, 0.24523053, 0.20306455, 0.041732773, 0.017927527, -0.027378082, 0
469, 1232711582, 0.81414294, 0.48560813, 0.24534528, 0.20288385, 0.022264348, 0.046948448, -0.011886597, 0
473, 1232778250, 0.8144005, 0.48515457, 0.24559937, 0.20262815, 0.018061187, -0.03626453, -0.0025129318, 0
475, 1232811584, 0.8147207, 0.48466286, 0.24559943, 0.2025169, 0.020203335, -0.048424527, 0.013838768, 0
476, 1232828251, 0.81495297, 0.48437476, 0.24548978, 0.2024044, 0.03219078, -0.08036766, 0.019649506, 0
478, 1232861585, 0.8155622, 0.4834515, 0.24527605, 0.20241807, -0.0022948075, 0.0260634, 0.032374382, 0
480, 1232894919, 0.816308, 0.4821885, 0.24519528, 0.20252232, 0.017488325, -0.058171034, 0.022659302, 0
482, 1232928253, 0.81717664, 0.48079908, 0.24499, 0.20257033, -0.0138980355, -0.076271564, -0.064707756, 0
484, 1232961587, 0.8179139, 0.47933444, 0.24517927, 0.20283653, 0.0053379363, 0.030947603, -0.035785675, 0
485, 1232978254, 0.8182525, 0.4786051, 0.24534254, 0.20299536, 0.045972817, 0.0035315047, -0.07768059, 0
487, 1233011588, 0.81879246, 0.47751462, 0.24547097, 0.20323181, -0.090264365, -0.00248457, -0.054775238, 0
489, 1233044922, 0.8190671, 0.4770552, 0.24530849, 0.20339926, -0.076850906, 0.057449088, -0.09181881, 0
491, 1233078256, 0.8192046, 0.47668025, 0.24551028, 0.20348111, -0.0139610665, 0.031449165, -0.077796936, 0
493, 1233111590, 0.81918293, 0.47614834, 0.24622445, 0.20394999, 0.09682872, 0.05978614, -0.010112762, 0
494, 1233128257, 0.8191059, 0.47613895, 0.24639888, 0.20407088, -0.033549517, -0.0032056228, -0.0055446625, 0
496, 1233161591, 0.8190272, 0.4761017, 0.24634218, 0.2045419, 0.1031034, 0.049382057, 0.054379463, 0
498, 1233194925, 0.8189385, 0.47592443, 0.24662057, 0.20497394, -0.02331486, 0.0029602055, 0.06453991, 0
500, 1233228259, 0.8190185, 0.4752251, 0.24722046, 0.20555337, -0.03980654, -0.03491183, -0.070277214, 0
502, 1233261593, 0.81895816, 0.4748087, 0.24776283, 0.20610185, -0.06688491, 0.025178734, 0.042417526, 0
503, 1233278260, 0.81900823, 0.47459993, 0.24779288, 0.20634778, -0.04247752, -0.009488125, 0.039901733, 0
505, 1233311594, 0.8191918, 0.47430602, 0.2475112, 0.20663303, -0.02935038, 0.038370915, 0.009151459, 0
509, 1233378262, 0.8196077, 0.47350273, 0.24714664, 0.20726068, 0.066697605, 0.03045543, -0.042435646, 0
511, 1233411596, 0.81955004, 0.47313726, 0.24764657, 0.20772663, 0.042547032, 0.0521639, 0.034362793, 0
512, 1233428263, 0.81953967, 0.4730195, 0.24780776, 0.2078435, 0.07275414, 0.0014470229, 0.07456589, 0
514, 1233461597, 0.81975883, 0.47275633, 0.24748501, 0.20796263, -0.028986054, -0.066223316, 0.036688805, 0
516, 1233494931, 0.82021767, 0.47235066, 0.24687703, 0.20779735, 0.046713986, -0.056039616, 0.07642746, 0
518, 1233528265, 0.82114726, 0.4716623, 0.2455926, 0.20721115, -0.017114388, -0.08171857, 0.10948944, 0
520, 1233561599, 0.82240784, 0.4706555, 0.24392459, 0.20646974, -0.07723222, 0.039207302, 0.10412502, 0
521, 1233578266, 0.8231284, 0.47005272, 0.24290997, 0.20616733, -0.09180839, 0.11042568, 0.091534615, 0
523, 1233611600, 0.82524514, 0.46860722, 0.23919137, 0.2053425, 0.038343873, 0.016791634, 0.027737617, 0
525, 1233644934, 0.8277009, 0.46659783, 0.23499528, 0.20487879, -0.12858477, -0.08609562, -0.2539425, 0
529, 1233711602, 0.8302612, 0.4652562, 0.23021433, 0.20298919, -0.14796044, -0.16867562, 0.15278625, 0
530, 1233728269, 0.8306047, 0.46508154, 0.22957757, 0.20270534, 0.11321747, -0.068917535, 0.28281593, 0
532, 1233761603, 0.8316436, 0.4631967, 0.22892343, 0.20350073, 0.20109472, 0.13051726, 0.3020239, 0
534, 1233794937, 0.8329378, 0.45948517, 0.22931428, 0.2061634, 0.39117897, -0.17501512, 0.34632587, 0
536, 1233828271, 0.8342444, 0.45582852, 0.22967094, 0.20858598, 0.16248497, -0.14513233, 0.17441368, 0
538, 1233861605, 0.8363966, 0.45160663, 0.22848687, 0.21044315, 0.5076158, -0.3103806, 0.432065, 0
539, 1233878272, 0.8376014, 0.4500143, 0.2270215, 0.21064785, 0.22856435, -0.2853827, 0.1658783, 0
541, 1233911606, 0.84009415, 0.44572043, 0.22524025, 0.21175982, -0.17264365, 0.12859371, 0.013876915, 0
543, 1233944940, 0.842301, 0.44096243, 0.22477989, 0.21343693, 0.15788664, -0.037249774, 0.072665215, 0
545, 1233978274, 0.84451973, 0.43622497, 0.22435294, 0.21484852, 0.08494498, -0.1569537, 0.010184288, 0
548, 1234028275, 0.84757656, 0.42995712, 0.22275302, 0.21709956, -0.24124357, 0.47733673, 9.536743E-5, 0
550, 1234061609, 0.84998626, 0.42450106, 0.22196959, 0.21920781, -0.10377371, -0.04023345, -0.027944565, 0
552, 1234094943, 0.8524942, 0.4205523, 0.21930508, 0.2197608, -0.20692584, -0.13592225, -0.09613609, 0
554, 1234128277, 0.854477, 0.41683614, 0.21811354, 0.22032623, -0.120960966, 0.15857843, -0.20801163, 0
556, 1234161611, 0.8556713, 0.41449767, 0.2177421, 0.2204697, 0.16517317, 0.10296549, -0.24868679, 0
557, 1234178278, 0.8558906, 0.41417074, 0.21779105, 0.22018497, -0.013002866, 0.011560313, 0.1455307, 0
559, 1234211612, 0.85683334, 0.41129905, 0.21990678, 0.21979825, 0.3633031, -0.41980025, 0.034472466, 0
561, 1234244946, 0.8578852, 0.40954703, 0.21860518, 0.2202635, 0.1631535, -0.035336953, 0.20357227, 0
563, 1234278280, 0.85805297, 0.41009778, 0.21830401, 0.21888009, -0.05123699, 0.15627937, -0.1116972, 0
566, 1234328281, 0.8592048, 0.4099068, 0.21242258, 0.22049993, -0.372403, -0.065844685, 1.3931456, 0
570, 1234394949, 0.86102504, 0.41080412, 0.20054476, 0.22284031, -0.16210489, 0.0044260034, -0.22561741, 0
572, 1234428283, 0.8619332, 0.41023824, 0.19877759, 0.2219543, -0.25858393, 0.34703204, -0.40629005, 0
574, 1234461617, 0.8637349, 0.40719324, 0.19656518, 0.22252649, -0.1954537, 0.3603487, -0.1130476, 0
575, 1234478284, 0.864365, 0.40649137, 0.19745593, 0.22056633, 0.25174856, -0.52459365, -0.13619804, 0
577, 1234511618, 0.86478126, 0.40761384, 0.19480771, 0.21921359, -0.220287, 0.01324426, -0.23981476, 0
579, 1234544952, 0.86523795, 0.40748012, 0.19371909, 0.21862453, -0.0121187605, -0.24600863, -0.31998825, 0
581, 1234578286, 0.86557317, 0.40692115, 0.19418304, 0.21792571, -0.045775454, -0.035001457, -0.10995579, 0
583, 1234611620, 0.86668193, 0.40571135, 0.19276956, 0.2170274, 0.1123584, -0.20291735, 0.012231827, 0
590, 1234728289, 0.86757094, 0.40480566, 0.19406775, 0.21398841, 0.053858686, -0.047662575, -0.09624767, 0
592, 1234761623, 0.86752665, 0.40545344, 0.19419627, 0.21282108, -0.04512324, -0.009649278, 0.021157265, 0
593, 1234778290, 0.8675388, 0.40578255, 0.19396746, 0.21235257, -0.040013514, -0.0133435, 0.059802055, 0
595, 1234811624, 0.8675447, 0.40653145, 0.19350538, 0.21131584, -0.025981706, -0.047224935, -0.12166786, 0
597, 1234844958, 0.8678881, 0.40643942, 0.19367088, 0.20992571, -0.022815978, -0.10565681, -0.0751524, 0
599, 1234878292, 0.8680052, 0.40701696, 0.19403225, 0.2079803, -0.08388866, -0.10747799, -0.14963722, 0
601, 1234911626, 0.86755484, 0.40862033, 0.19475274, 0.20603311, 0.0030153014, -0.049714647, -0.17513561, 0
604, 1234961627, 0.8666401, 0.41194782, 0.1952657, 0.20274515, 0.039010163, 0.022168461, -0.0780983, 0
610, 1235061629, 0.86437875, 0.4216797, 0.19213882, 0.1952404, 0.040698245, -0.16172436, -0.11510849, 0
613, 1235111630, 0.8618859, 0.42716438, 0.19321442, 0.19326563, -0.17176144, 0.1847748, -0.0712595, 0
615, 1235144964, 0.8601819, 0.43006703, 0.19485036, 0.19277766, 0.28719628, 0.008512715, -0.12889671, 0
619, 1235211632, 0.85700315, 0.43576425, 0.19935015, 0.18951228, 0.1779161, 0.3101412, -0.050904274, 0
622, 1235261633, 0.8548768, 0.43767402, 0.2044739, 0.18925506, 0.054283585, -0.16910855, 0.15412045, 0
624, 1235294967, 0.85281724, 0.44002807, 0.20726225, 0.19005415, 0.18921322, 0.075254574, -0.03226185, 0
626, 1235328301, 0.85081655, 0.44295067, 0.20923363, 0.19007254, 0.17522131, 0.013539745, -0.18484879, 0
628, 1235361635, 0.84848505, 0.44584578, 0.21227866, 0.19034863, -0.0630739, -0.1177692, 0.2057972, 0
629, 1235378302, 0.8474286, 0.44779116, 0.21277185, 0.1899374, 0.017181888, -0.23754756, 0.28790855, 0
633, 1235444970, 0.8428824, 0.4548927, 0.2161784, 0.1894438, 0.058854092, -0.13523562, 0.27898216, 0
635, 1235478304, 0.8406883, 0.45772684, 0.21853513, 0.18966247, 0.13533263, -0.004191315, 0.12222576, 0
637, 1235511638, 0.83850396, 0.46070328, 0.22078295, 0.18952252, 0.046464097, -0.20334539, 0.25823307, 0
638, 1235528305, 0.8374554, 0.46216357, 0.22178856, 0.1894286, -0.00502256, -0.0669466, 0.1858902, 0
646, 1235661641, 0.8323198, 0.47025567, 0.22343464, 0.19021192, 0.022003956, -0.0070129423, -0.052274704, 0
647, 1235678308, 0.83190477, 0.47116715, 0.22316366, 0.19009008, -0.04241438, -0.013711179, 0.002272606, 0
649, 1235711642, 0.8309128, 0.47300655, 0.22296405, 0.19009505, -0.059090678, 0.14895573, -0.0017127991, 0
651, 1235744976, 0.82955456, 0.47500187, 0.2231875, 0.19078782, 0.02471338, 0.17311257, -0.09548378, 0
653, 1235778310, 0.827999, 0.47731107, 0.22335953, 0.19157916, -0.123904966, 0.109174006, -0.1358118, 0
655, 1235811644, 0.826117, 0.48049775, 0.2231192, 0.1920175, -0.16464736, 0.080503106, -0.183177, 0
656, 1235828311, 0.82496214, 0.48253894, 0.22290058, 0.19211805, -0.08196667, 0.062496457, -0.20270061, 0
658, 1235861645, 0.8229622, 0.4868821, 0.22144632, 0.19141878, -0.10063525, -0.23562288, 0.15589333, 0
660, 1235894979, 0.821363, 0.49052113, 0.21985969, 0.19082439, 0.1071216, -6.437173E-4, 0.19831562, 0
662, 1235928313, 0.81992006, 0.49318302, 0.21921776, 0.19090678, 0.104998454, 0.018098738, 0.11654472, 0
665, 1235978314, 0.81828386, 0.49486154, 0.22022368, 0.19241965, 0.08912959, -0.14382969, 0.19271374, 0
667, 1236011648, 0.81763476, 0.49516633, 0.22104928, 0.19344467, -0.12837355, -0.18444602, 0.01213932, 0
669, 1236044982, 0.8173188, 0.49489805, 0.22216092, 0.1941922, -0.09231007, -0.18322341, 0.050200462, 0
671, 1236078316, 0.8170189, 0.4949334, 0.2230253, 0.19437324, -0.09902507, -0.02095255, 0.013998985, 0
673, 1236111650, 0.8166906, 0.49519357, 0.22354361, 0.194495, 0.02460587, -0.04321623, 0.085253716, 0
674, 1236128317, 0.81656605, 0.4953863, 0.22355242, 0.19451714, 0.07688622, -0.14367458, 0.08319378, 0
676, 1236161651, 0.8164671, 0.49545935, 0.22352338, 0.19477916, 0.075150535, -0.029775502, -0.0446043, 0
678, 1236194985, 0.8164473, 0.49540538, 0.22360057, 0.19491062, -0.047973815, -0.01203349, -0.053739548, 0
680, 1236228319, 0.8164567, 0.4952188, 0.2238852, 0.19501887, -0.0041745515, -0.12051461, 0.08139801, 0
682, 1236261653, 0.8164815, 0.49519742, 0.22386275, 0.19499493, 0.045460522, 0.02662844, -0.0033740997, 0
685, 1236311654, 0.8166592, 0.494614, 0.22408539, 0.19547538, -0.035789005, 0.036423672, -0.030620575, 0
687, 1236344988, 0.81677675, 0.49434635, 0.22416286, 0.19557223, -0.030771587, -0.012405416, 0.009809494, 0
689, 1236378322, 0.8167914, 0.4942948, 0.22416471, 0.19563952, -0.04934697, 0.03480454, -0.025408745, 0
691, 1236411656, 0.8168074, 0.49426997, 0.22412409, 0.19568248, 0.016329186, 0.0021837216, -0.054899216, 0
692, 1236428323, 0.81680083, 0.49427444, 0.2241182, 0.19570467, -0.016225029, 0.0816466, -0.04181671, 0
696, 1236494991, 0.8168285, 0.4942973, 0.22401884, 0.19564523, -0.009055963, 0.01123689, -0.0575037, 0
698, 1236528325, 0.8166883, 0.4944223, 0.22416416, 0.19574806, -0.026772382, 0.037750892, 9.2697144E-4, 0
700, 1236561659, 0.8167348, 0.49446654, 0.2239091, 0.19573505, -4.4669065E-4, -0.03709689, 0.08533001, 0
701, 1236578326, 0.8167798, 0.49454337, 0.223676, 0.19562009, -0.010534277, -0.028390616, 0.1078949, 0
705, 1236644994, 0.8181414, 0.49491838, 0.21978202, 0.19338177, -0.028409392, -0.03792836, 0.040345192, 0
707, 1236678328, 0.8194577, 0.4950617, 0.21607727, 0.19160844, 0.15765966, 7.42063E-4, 0.1643629, 0
709, 1236711662, 0.82162297, 0.49421117, 0.21149807, 0.18963028, -0.011934474, -0.058802236, -0.009814262, 0
710, 1236728329, 0.8225916, 0.49324268, 0.2104199, 0.1891519, -0.10051568, -0.013577965, 0.10974789, 0
712, 1236761663, 0.8242501, 0.49090692, 0.20931889, 0.18922977, 0.3760866, -0.067449056, 0.25367546, 0
714, 1236794997, 0.82590085, 0.4876984, 0.20883878, 0.19085196, 0.41681546, -0.050515268, 0.39905834, 0
716, 1236828331, 0.8277411, 0.48421997, 0.20800373, 0.19264027, 0.11020485, -0.12592764, 0.28036213, 0
718, 1236861665, 0.8295283, 0.48135948, 0.2064895, 0.19374721, 0.062318765, -0.21298327, 0.45664215, 0
721, 1236911666, 0.8346457, 0.47540388, 0.19783966, 0.19549288, 0.47021338, -0.30428785, 0.4524374, 0
723, 1236945000, 0.83781713, 0.47026238, 0.19403398, 0.19815858, 0.1477852, -0.16580594, 0.23453331, 0
728, 1237028335, 0.8448685, 0.4543949, 0.19107921, 0.20787358, -0.07040546, 0.046228066, -0.14556599, 0
730, 1237061669, 0.84696436, 0.4483899, 0.19197652, 0.2115263, -0.32578343, 0.16110165, -0.16237068, 0
732, 1237095003, 0.8500363, 0.44236913, 0.18943037, 0.21415891, -0.18145485, 0.12230405, -0.06872654, 0
734, 1237128337, 0.85287184, 0.43646103, 0.18785265, 0.21638659, -0.3076735, 0.13239075, -0.37015915, 0
736, 1237161671, 0.85519975, 0.43189293, 0.18627518, 0.21772356, -0.256556, 0.08485379, -0.2349453, 0
737, 1237178338, 0.8563842, 0.42977497, 0.18522188, 0.21815728, -0.27530706, 0.18226878, -0.36662102, 0
739, 1237211672, 0.8580312, 0.42644808, 0.18416125, 0.21911064, -0.34081578, 0.09276525, -0.5664902, 0
741, 1237245006, 0.859825, 0.42327222, 0.18280956, 0.21936814, -0.16061507, 0.38006836, -0.07795715, 0
743, 1237278340, 0.8607941, 0.42175063, 0.18175851, 0.21937168, 0.0028634244, 0.0013658877, -0.36312866, 0
745, 1237311674, 0.8610432, 0.42135626, 0.18146776, 0.21939315, 0.012954364, -0.0552904, -0.27070427, 0
748, 1237361675, 0.86108977, 0.42161092, 0.18119778, 0.2189433, -0.0012296565, 0.0093263015, -0.13283634, 0
750, 1237395009, 0.8606846, 0.42245832, 0.18107979, 0.21900113, 0.060680863, -0.024691476, -0.047981262, 0
752, 1237428343, 0.8604694, 0.42351717, 0.18000603, 0.21868668, 0.0968495, -0.056068003, -0.004463196, 0
754, 1237461677, 0.8601151, 0.42459345, 0.17969061, 0.21825194, 7.621792E-5, 0.0014271302, -0.08310127, 0
755, 1237478344, 0.859942, 0.42501712, 0.17973965, 0.21806866, 0.022545863, -0.026402244, -0.052742004, 0
757, 1237511678, 0.85966897, 0.42570361, 0.17984739, 0.21771707, -0.03915433, -0.003930252, -0.118312836, 0
759, 1237545012, 0.85938936, 0.42647758, 0.180124, 0.21707709, -0.109830245, 0.0015806836, -0.092062, 0
761, 1237578346, 0.85901284, 0.4277113, 0.18024266, 0.21603851, -0.09259449, -0.023055362, -0.12421036, 0
763, 1237611680, 0.85871863, 0.42879626, 0.18056166, 0.21478832, -0.13498372, 0.0685883, -0.17841816, 0
764, 1237628347, 0.8586368, 0.429269, 0.18054219, 0.21418585, -0.08033067, 0.03240066, -0.13823605, 0
768, 1237695015, 0.85793614, 0.4322818, 0.18102533, 0.21049492, -0.20689902, 0.053831756, -0.21428394, 0
770, 1237728349, 0.85759056, 0.4348982, 0.179915, 0.20744331, -0.19935958, 0.120175764, -0.36069775, 0
772, 1237761683, 0.856731, 0.439, 0.17842564, 0.2036064, -0.11217757, -0.021176511, -0.245862, 0
773, 1237778350, 0.8560487, 0.44183284, 0.17715712, 0.20144475, -0.20997958, 0.15711755, -0.28258896, 0
775, 1237811684, 0.85469145, 0.44699872, 0.17485408, 0.19778994, -0.16074516, 0.32919592, -0.49162292, 0
777, 1237845018, 0.85181004, 0.45462576, 0.17321791, 0.19424422, 0.09586828, 0.49535164, -0.86448956, 0
779, 1237878352, 0.84768933, 0.4637007, 0.17290471, 0.19107243, -0.12606265, 0.5805396, -0.54125404, 0
781, 1237911686, 0.84324664, 0.47307956, 0.1724211, 0.18815409, 0.122568585, 0.020878345, -0.017249107, 0
782, 1237928353, 0.8409927, 0.4782935, 0.17125888, 0.18611115, 0.2050062, -0.01515999, -0.052070618, 0
784, 1237961687, 0.8363032, 0.4876176, 0.17010133, 0.18409711, 0.52679414, 0.1335709, 0.36650658, 0
788, 1238028355, 0.8278389, 0.50379944, 0.16796373, 0.18071324, 0.27762926, -0.45694363, 0.6542368, 0
790, 1238061689, 0.82448745, 0.5096093, 0.16821083, 0.17951046, 0.02998661, -0.34535703, 0.48334217, 0
793, 1238111690, 0.8204241, 0.5155666, 0.17055343, 0.17890593, 0.23621587, -0.34393996, 0.6205845, 0
795, 1238145024, 0.8185879, 0.51791036, 0.17236592, 0.17880979, 0.1189185, -0.072881766, 0.42635536, 0
797, 1238178358, 0.8175063, 0.51915467, 0.1738344, 0.17872758, 0.20456107, -0.023170695, 0.17093754, 0
799, 1238211692, 0.81645024, 0.5198182, 0.1761889, 0.17931993, 0.12754644, -0.02762799, 0.11415291, 0
800, 1238228359, 0.8159837, 0.5200806, 0.17723526, 0.17965187, 0.111329235, -0.11689415, 0.033647537, 0
802, 1238261693, 0.8150887, 0.5207992, 0.17879912, 0.18008187, 0.060805917, 0.029567188, -0.08269024, 0
804, 1238295027, 0.81446564, 0.5213596, 0.1799002, 0.18018384, 0.10044248, -0.15751539, 0.055669785, 0
806, 1238328361, 0.8138083, 0.5223182, 0.18034364, 0.17993338, -0.037970383, 0.12919228, -0.14115238, 0
808, 1238361695, 0.81325704, 0.52292925, 0.18116413, 0.17982663, 0.0027620613, 0.055107567, -0.05352688, 0
809, 1238378362, 0.8129697, 0.5231833, 0.18177871, 0.17976762, 1.5545326E-4, 0.05133109, 0.04481888, 0
811, 1238411696, 0.8125456, 0.52359164, 0.18262939, 0.17963365, 0.006241264, -0.03823368, 0.08497143, 0
813, 1238445030, 0.8123359, 0.5240335, 0.1826705, 0.17925127, 0.009303057, -0.019447863, -0.033463478, 0
815, 1238478364, 0.8120607, 0.52433336, 0.18310028, 0.1791831, 0.062131908, 0.0692908, 0.10306263, 0
817, 1238511698, 0.8117857, 0.5243348, 0.18388502, 0.17962076, 0.12090285, 0.08303015, 0.011357307, 0
818, 1238528365, 0.8115855, 0.52428323, 0.1845235, 0.1800203, 0.07670964, 0.08797693, 0.02571106, 0
820, 1238561699, 0.8112411, 0.52415407, 0.18560587, 0.18083481, 0.06254216, -0.0063580493, 0.048872948, 0
822, 1238595033, 0.81098086, 0.52424544, 0.18602441, 0.18130636, 0.037313923, -0.022531895, -0.024626732, 0
826, 1238661701, 0.8105191, 0.52462673, 0.18662287, 0.18165272, -0.035194237, -0.004087158, 0.03548336, 0
827, 1238678368, 0.8104255, 0.524682, 0.18683477, 0.18169291, -0.019939926, -0.01237323, 0.03810692, 0
829, 1238711702, 0.81009805, 0.5248444, 0.18765537, 0.18183869, -0.033236712, 0.07052951, -0.026062965, 0
831, 1238745036, 0.8097816, 0.52474046, 0.18875122, 0.18241325, 0.11802021, 0.04114784, 0.09015846, 0
833, 1238778370, 0.80978817, 0.52439, 0.18931693, 0.1828045, 0.0273914, -0.009019195, -0.013672829, 0
835, 1238811704, 0.80982625, 0.5241135, 0.18979733, 0.18293087, -0.050969, 0.03725648, -0.0059394836, 0
836, 1238828371, 0.8097944, 0.52405405, 0.19005297, 0.18297692, -0.027427051, 0.044919845, -0.022231102, 0
838, 1238861705, 0.80961454, 0.5239984, 0.19069889, 0.1832598, 0.049742024, 0.04399942, -0.11151981, 0
840, 1238895039, 0.8094036, 0.5241319, 0.19114864, 0.18334132, 0.030042265, 0.027639166, -0.042186737, 0
842, 1238928373, 0.8091603, 0.52444524, 0.19126077, 0.18340178, 0.029579146, 0.011721467, -0.057804108, 0
845, 1238978374, 0.8086881, 0.52514404, 0.19131143, 0.18343234, 0.036077004, 0.07242893, -0.025541306, 0
847, 1239011708, 0.80838436, 0.5254876, 0.19145598, 0.18363637, -0.014146247, -0.044399954, 0.0094537735, 0
849, 1239045042, 0.8082563, 0.52578616, 0.19124654, 0.18356416, 0.005072068, -0.084251866, 0.05925083, 0
851, 1239078376, 0.80816394, 0.52597445, 0.19118406, 0.18349594, 0.04617666, 0.019846609, 0.022144318, 0
853, 1239111710, 0.80819434, 0.5259346, 0.19118541, 0.18347523, 0.045014504, -0.0273857, 0.010446548, 0
854, 1239128377, 0.80824864, 0.5259054, 0.1911157, 0.18339232, 0.044271547, -0.042190306, 0.032836914, 0
856, 1239161711, 0.8082941, 0.5259685, 0.19094679, 0.18318623, 3.2476432E-4, 0.0055462504, 0.020209312, 0
858, 1239195045, 0.8083746, 0.5259068, 0.1908506, 0.18310831, 0.018459152, 0.056871083, -0.017138481, 0
860, 1239228379, 0.80844325, 0.52581316, 0.19085433, 0.1830705, 0.031310588, 0.054931886, -0.05089283, 0
862, 1239261713, 0.80849826, 0.52569985, 0.19091955, 0.183085, 0.025692033, -0.0017590469, -0.0014419556, 0
865, 1239311714, 0.80867255, 0.525455, 0.19089898, 0.1830395, 0.0106013315, 0.04135973, 0.0063610077, 0
867, 1239345048, 0.8088191, 0.52518356, 0.19104293, 0.18302083, 0.031240294, -0.0018024085, 0.0340662, 0
869, 1239378382, 0.8091312, 0.524824, 0.19090171, 0.18282036, 0.018739773, 0.010910561, 0.050065994, 0
871, 1239411716, 0.8095245, 0.5242836, 0.19084999, 0.18268396, -0.009317026, -0.015793426, 0.025255203, 0
872, 1239428383, 0.8097559, 0.52404255, 0.19063449, 0.18257453, 0.03437741, -0.0061622523, 0.087132454, 0
874, 1239461717, 0.8105615, 0.5234977, 0.18956947, 0.1816699, 0.04688799, -0.023346823, 0.2375164, 0
876, 1239495051, 0.81236243, 0.5225438, 0.1861246, 0.17992516, 0.22512124, -0.1514573, 0.39133644, 0
878, 1239528385, 0.8148406, 0.5200161, 0.18280013, 0.17945023, 0.20527932, 0.04717196, 0.17448235, 0
880, 1239561719, 0.8171089, 0.5163631, 0.18229139, 0.1802007, 0.007841058, -0.20402129, 0.17784691, 0
881, 1239578386, 0.81807506, 0.51449496, 0.18252544, 0.18092182, 0.058238983, -0.23489825, 0.3959198, 0
885, 1239645054, 0.82335293, 0.5034804, 0.18319048, 0.18718679, 0.24539477, 0.028085744, 0.45682526, 0
887, 1239678388, 0.82678014, 0.4971643, 0.1823527, 0.18976289, -0.021072801, -0.42819405, 0.28977108, 0
889, 1239711722, 0.8300285, 0.49105874, 0.18078543, 0.19295397, 0.021832187, -0.052767385, 0.49848747, 0
890, 1239728389, 0.8317322, 0.48793808, 0.17911717, 0.1950771, 0.34640205, 0.2974421, 0.3094597, 0
892, 1239761723, 0.8355863, 0.47992787, 0.1776033, 0.19980457, 0.3809099, 0.2609299, -0.08509159, 0
894, 1239795057, 0.83875024, 0.47180346, 0.17809413, 0.20538323, 0.25966775, 0.08202791, -0.13347244, 0
896, 1239828391, 0.84203744, 0.46414155, 0.17837812, 0.20911051, -0.1407081, 0.24312219, -0.074765205, 0
898, 1239861725, 0.8447399, 0.4565983, 0.17983301, 0.21352471, -0.4330682, -0.021220544, -0.2366991, 0
899, 1239878392, 0.8459928, 0.4536053, 0.1797549, 0.21500418, -0.21711758, -0.1936914, -0.16819096, 0
901, 1239911726, 0.84866434, 0.44820935, 0.17816515, 0.21710518, 0.08721017, 0.38902095, -0.11832237, 0
903, 1239945060, 0.85036683, 0.4439653, 0.17795132, 0.21932748, -0.40971893, -0.044361733, -0.3355751, 0
905, 1239978394, 0.85160506, 0.4409183, 0.17829011, 0.22039218, -0.23915093, 0.251497, -0.3747797, 0
907, 1240011728, 0.85306245, 0.43822914, 0.17671774, 0.22138377, -0.051643338, -0.10537429, -0.03859043, 0
908, 1240028395, 0.853949, 0.43710282, 0.17513244, 0.22145239, -0.013142897, 0.15382318, -0.45455647, 0
910, 1240061729, 0.85570264, 0.43539074, 0.17092602, 0.22134286, -0.07677513, 0.082343064, -0.36819172, 0
912, 1240095063, 0.85604846, 0.4356207, 0.16836184, 0.22151802, -0.29680452, 0.09191412, -0.28544807, 0
914, 1240128397, 0.8567689, 0.4357435, 0.1651626, 0.22089887, -0.014180891, -0.0051396806, -0.410223, 0
916, 1240161731, 0.8572717, 0.43550742, 0.1635504, 0.22061317, 0.010742927, -0.09013271, -0.43134212, 0
917, 1240178398, 0.8568991, 0.43640563, 0.16336338, 0.22042443, -0.104440674, -0.09527195, -0.28048515, 0
921, 1240245066, 0.8556819, 0.43994492, 0.1612679, 0.21965887, 0.07380018, -0.113035865, -0.16445923, 0
923, 1240278400, 0.8551005, 0.44171214, 0.16015635, 0.21918836, 0.07485113, -0.027200855, -0.075675964, 0
925, 1240311734, 0.8544277, 0.4434884, 0.15934879, 0.21881399, 0.18976395, -0.05556331, 0.092062, 0
926, 1240328401, 0.85408074, 0.44444418, 0.15896074, 0.21851157, 0.15753908, 0.004735569, -0.03672123, 0
928, 1240361735, 0.8534746, 0.44589782, 0.15856807, 0.21820322, 0.06316208, -4.3272108E-4, -0.018650055, 0
930, 1240395069, 0.85291916, 0.44725236, 0.1583336, 0.21777284, 0.020752285, 0.019728819, -0.030433655, 0
932, 1240428403, 0.85235393, 0.44862363, 0.15828635, 0.21719849, 0.049244374, -0.11808927, -0.09809017, 0
934, 1240461737, 0.8514868, 0.45029262, 0.15922521, 0.21645828, -0.08834685, -0.00549149, -0.19616032, 0
935, 1240478404, 0.85101604, 0.45117682, 0.15981652, 0.21603262, -0.12173343, 0.049301147, -0.09219742, 0
937, 1240511738, 0.8503298, 0.45278054, 0.16031773, 0.21500555, -0.04711128, 0.026542835, -0.27303123, 0
941, 1240578406, 0.8490556, 0.45551312, 0.16258131, 0.21255626, -0.15439962, 0.09699434, -0.0994463, 0
943, 1240611740, 0.8482132, 0.45837912, 0.1612568, 0.21075924, 0.2806098, -0.26140085, 0.041013718, 0
944, 1240628407, 0.8475648, 0.46103823, 0.15970504, 0.20873918, -0.08506981, -0.059783682, -0.31069565, 0
946, 1240661741, 0.84641033, 0.465558, 0.15813163, 0.20454855, -0.44188243, -0.099187, -0.43138313, 0
948, 1240695075, 0.8455548, 0.4697061, 0.15688567, 0.1995005, -0.17071082, -0.06553936, -0.0051441193, 0
950, 1240728409, 0.8441784, 0.47502625, 0.15478683, 0.19430465, -0.008157776, -4.8368203E-4, 0.32758236, 0
952, 1240761743, 0.8436243, 0.47855747, 0.15391895, 0.18865344, -0.1882615, 0.50461984, -0.22271919, 0
955, 1240811744, 0.84235674, 0.4827467, 0.15395331, 0.18354721, 0.23103595, -0.3778473, 0.20769691, 0
957, 1240845078, 0.8412627, 0.48567078, 0.15444964, 0.18040667, -0.077532284, 0.44180286, -0.111439705, 0
959, 1240878412, 0.8399962, 0.4879216, 0.1564025, 0.17854188, 0.3117429, -0.5027707, 0.1736269, 0
962, 1240928413, 0.8374923, 0.49340263, 0.15773523, 0.17401211, 0.08543403, 0.39143914, -0.08299351, 0
964, 1240961747, 0.8361468, 0.49489367, 0.16127403, 0.17300239, 0.2617966, -0.3467419, 0.36354733, 0
966, 1240995081, 0.83427095, 0.49811146, 0.16196544, 0.172175, 0.11092959, 0.061799545, 0.10822868, 0
968, 1241028415, 0.8328203, 0.5000866, 0.16355957, 0.17196587, 0.24336392, 0.10799252, 0.101361275, 0
970, 1241061749, 0.83139735, 0.5021032, 0.16501926, 0.17158052, 0.20634896, -0.21509501, 0.19117069, 0
971, 1241078416, 0.83061737, 0.5031638, 0.16572773, 0.1715679, 0.06649041, 0.052636854, 0.1819334, 0
973, 1241111750, 0.8296297, 0.5045064, 0.16642949, 0.17172422, 0.18703866, -0.102258965, 0.12333202, 0
975, 1241145084, 0.8287146, 0.5059482, 0.16673316, 0.17160705, 0.10399979, -0.15230575, 0.055879593, 0
977, 1241178418, 0.8277796, 0.507064, 0.16765256, 0.17193013, 0.11490913, 0.11413331, 0.15500927, 0
979, 1241211752, 0.8270415, 0.50757015, 0.16872269, 0.1729394, 0.21052954, -0.0109257605, 0.08826065, 0
982, 1241261753, 0.8259298, 0.50832343, 0.17062259, 0.17417042, -0.04173825, 6.7187997E-4, -0.011511803, 0
984, 1241295087, 0.8254803, 0.50862825, 0.17150883, 0.1745412, -0.009995053, -0.06649913, -0.025270462, 0
986, 1241328421, 0.82504225, 0.50904214, 0.1720766, 0.17484649, -0.016653728, -0.062891625, 0.047148705, 0
988, 1241361755, 0.824791, 0.5097103, 0.17177083, 0.17438501, -0.02322456, -0.039905556, 0.07932091, 0
989, 1241378422, 0.8246841, 0.5099215, 0.17175546, 0.17428859, 0.016361708, 0.054892994, 0.045096397, 0
991, 1241411756, 0.82449174, 0.51001865, 0.1721628, 0.17451194, 0.09432157, 0.09864253, -0.024075508, 0
993, 1241445090, 0.82423115, 0.50990987, 0.17301565, 0.1752164, 0.023024293, 0.043209523, -0.058442116, 0
995, 1241478424, 0.8239735, 0.5098454, 0.17382509, 0.17581451, -0.045624133, -0.054412887, 0.0015153885, 0
997, 1241511758, 0.8238362, 0.5099317, 0.17402142, 0.17601244, -0.04784362, 0.01111977, -0.061636925, 0
998, 1241528425, 0.8237527, 0.510002, 0.17410582, 0.17611565, -0.022868617, 0.006265068, -0.075995445, 0
1000, 1241561759, 0.8234734, 0.5102795, 0.17448536, 0.17624272, 0.01691669, 0.03861991, -0.004825592, 0
1002, 1241595093, 0.82316923, 0.5105519, 0.17488387, 0.176479, 0.058532007, -0.004314694, -0.06562424, 0
1004, 1241628427, 0.8228602, 0.51082563, 0.17528126, 0.17673399, 0.006600673, -0.02055157, -0.053678513, 0
1006, 1241661761, 0.8225159, 0.51106733, 0.1759117, 0.17701168, -0.010942747, -0.01201248, 0.016916275, 0
1007, 1241678428, 0.8223681, 0.5111769, 0.17618242, 0.177113, -0.035884783, 0.014831426, 0.035902977, 0
1009, 1241711762, 0.8222354, 0.51130944, 0.1764418, 0.17708755, 0.009495053, -0.051856346, 0.0935545, 0
1011, 1241745096, 0.8220973, 0.5114329, 0.1766413, 0.1771731, 0.032783426, 0.015299462, -0.011902809, 0
1013, 1241778430, 0.8220912, 0.51127255, 0.17693758, 0.17736878, 0.01569955, -0.04960557, 0.031359673, 0
1015, 1241811764, 0.8222213, 0.51107335, 0.17690648, 0.17737111, -0.0020569898, -0.058769155, 0.0011148453, 0
1018, 1241861765, 0.8223951, 0.5109611, 0.17662323, 0.177171, 0.013509011, 0.057416454, -0.018505096, 0
1020, 1241895099, 0.8224836, 0.5108717, 0.17642711, 0.17721333, 0.050245043, 0.002826992, -0.066622734, 0
1022, 1241928433, 0.8225161, 0.5107997, 0.17642172, 0.17727515, 0.021355322, -0.0029637818, -0.06608963, 0
1024, 1241961767, 0.82250065, 0.5107606, 0.17660362, 0.17727847, -0.017483855, 0.028028078, 0.018144608, 0
1025, 1241978434, 0.8225197, 0.5107219, 0.17663957, 0.17726545, -5.643702E-5, -0.043158565, 0.021125793, 0
1027, 1242011768, 0.82246494, 0.51087785, 0.17653298, 0.17717671, 0.0058783907, -0.0120844515, -0.02171421, 0
1029, 1242045102, 0.82244414, 0.5108893, 0.17656289, 0.1772105, 0.011626697, 0.030662848, -0.043434143, 0
1031, 1242078436, 0.82242066, 0.5107486, 0.17689006, 0.17739895, 0.029593898, -0.031868923, 0.019366264, 0
1033, 1242111770, 0.82248265, 0.51066273, 0.17687406, 0.17737417, -0.0038585041, -0.004281167, -0.0123643875, 0
1034, 1242128437, 0.82250196, 0.51065224, 0.17684264, 0.17734624, 0.014122666, 0.00796466, -0.04890728, 0
1038, 1242195105, 0.8227077, 0.5105953, 0.17636731, 0.17702846, 0.073796265, -0.07536723, 0.10104275, 0
1040, 1242228439, 0.8232784, 0.5107532, 0.17437218, 0.17589359, 0.19663441, -0.24168813, 0.2409687, 0
1042, 1242261773, 0.8241963, 0.5117236, 0.16990995, 0.17311957, -0.12761226, -0.086786054, -0.101634026, 0
1043, 1242278440, 0.82475764, 0.5117581, 0.16802216, 0.1721839, -0.14263546, 0.2760917, -0.13332653, 0
1045, 1242311774, 0.82672805, 0.5102847, 0.16454984, 0.17045213, 0.3283413, -0.28549087, 0.19449043, 0
1047, 1242345108, 0.82748544, 0.5100693, 0.16287522, 0.16902404, -0.3052999, 0.22435649, -0.21303272, 0
1049, 1242378442, 0.8281518, 0.5082442, 0.16447128, 0.16971102, 0.111253016, -0.12849, 0.45543003, 0
1051, 1242411776, 0.8291506, 0.5062429, 0.16455151, 0.17073534, 0.2110749, -0.120599546, 0.4586525, 0
1052, 1242428443, 0.8301412, 0.5047899, 0.16379295, 0.17095229, 0.3123533, -0.31722566, 0.55189514, 0
1054, 1242461777, 0.832515, 0.50169736, 0.16149665, 0.1706978, 0.10538133, -0.26447618, 0.59564114, 0
1058, 1242528445, 0.8385204, 0.49229676, 0.15673879, 0.17309137, 0.31418502, 0.0010487228, 0.24119568, 0
1060, 1242561779, 0.8413338, 0.48671755, 0.15598637, 0.17587508, -0.014734086, 0.40360317, -0.102622986, 0
1061, 1242578446, 0.84281194, 0.48366022, 0.15545122, 0.17769612, 0.18466473, 0.10949408, -0.12575054, 0
1063, 1242611780, 0.84536225, 0.47867936, 0.15425949, 0.18009178, 0.026678618, 0.17742413, -0.1706419, 0
1065, 1242645114, 0.8477923, 0.47395235, 0.15332434, 0.18195993, -0.101311386, 0.0127138635, -0.15114498, 0
1067, 1242678448, 0.8496541, 0.47026998, 0.1520479, 0.18389076, 0.11801294, 0.20294976, -0.35539627, 0
1069, 1242711782, 0.85110855, 0.46619374, 0.15341604, 0.18639064, -0.08459429, 0.29687303, 0.06266308, 0
1070, 1242728449, 0.8516316, 0.46433964, 0.15396744, 0.18816614, 0.012586573, 0.07052415, -0.12582684, 0
1072, 1242761783, 0.85241526, 0.46217772, 0.15369709, 0.1901515, -0.17711803, 0.11102224, -0.44235516, 0
1074, 1242795117, 0.853196, 0.45908394, 0.155652, 0.19253868, -0.20538852, -0.14129819, 0.010656357, 0
1078, 1242861785, 0.8536311, 0.4561638, 0.15687092, 0.19652037, -0.042826757, -0.1291896, -0.2614956, 0
1079, 1242878452, 0.85365474, 0.45576885, 0.15744849, 0.196872, -0.0692537, -0.036862202, -0.11380005, 0
1081, 1242911786, 0.853934, 0.45449847, 0.15811934, 0.19805643, 0.061676163, 0.0579958, -0.05449581, 0
1083, 1242945120, 0.85389686, 0.45371503, 0.15863118, 0.1995978, -0.0845145, -0.17127866, -0.15758324, 0
1085, 1242978454, 0.8542287, 0.45294142, 0.15740488, 0.20090133, -0.015027335, -0.07925077, -0.17671585, 0
1087, 1243011788, 0.85429496, 0.4525792, 0.15753381, 0.20133422, -0.10705041, -0.010661344, -0.19763184, 0
1088, 1243028455, 0.8543383, 0.4523278, 0.15765445, 0.2016208, -0.106581144, 0.02331173, -0.18521786, 0
1090, 1243061789, 0.85433596, 0.45230153, 0.15776028, 0.20160687, -0.103950955, -0.11436711, -0.17646408, 0
1092, 1243095123, 0.8543017, 0.45276815, 0.15706946, 0.20124365, -0.06627561, -0.016642328, -0.15487957, 0
1094, 1243128457, 0.85423034, 0.4532594, 0.1565349, 0.20085713, -0.054527998, -0.07204985, -0.36277294, 0
1096, 1243161791, 0.85385036, 0.45401403, 0.15695326, 0.20044106, -0.069663286, -0.04644018, -0.092894554, 0
1097, 1243178458, 0.8535626, 0.4546786, 0.15695745, 0.20015657, -0.08247505, 0.058924273, -0.048695564, 0
1099, 1243211792, 0.8530764, 0.45599103, 0.15657113, 0.19954573, -0.082420066, -0.047039196, -0.110429764, 0
1101, 1243245126, 0.8526039, 0.4573339, 0.15633081, 0.19867872, -0.085089035, -0.08379277, -0.056811333, 0
1103, 1243278460, 0.8521988, 0.45858696, 0.15617283, 0.19764993, -0.22117725, 0.032378085, -0.052957535, 0
1105, 1243311794, 0.85211396, 0.4593915, 0.1556343, 0.19656895, 0.090857126, -0.11427368, 0.101117134, 0
1106, 1243328461, 0.8521696, 0.45993522, 0.15482397, 0.19569422, 0.07419792, -0.060817428, -0.044380188, 0
1108, 1243361795, 0.85241306, 0.46088743, 0.15365046, 0.1933044, -0.29662395, 0.066201635, -0.28380013, 0
1110, 1243395129, 0.8530797, 0.460713, 0.15306415, 0.19123307, -0.18914427, -0.14383729, -0.11546135, 0
1114, 1243461797, 0.8537987, 0.4629565, 0.1483524, 0.1862546, 0.03128477, 0.11165456, -0.24494076, 0
1115, 1243478464, 0.8541351, 0.46299464, 0.14821677, 0.18471909, -0.05523564, -0.016371878, -0.4080286, 0
1117, 1243511798, 0.8541564, 0.46445647, 0.14838307, 0.18077548, -0.16365093, -0.07866136, 0.1194067, 0
1119, 1243545132, 0.85401684, 0.46657258, 0.14644264, 0.17753866, -0.103320874, 0.26690084, -0.10246849, 0
1121, 1243578466, 0.8542101, 0.46746606, 0.14502354, 0.17541106, 0.10469816, 0.021184111, -0.069218636, 0
1123, 1243611800, 0.8541589, 0.46868506, 0.14573964, 0.17177634, 0.009857704, 0.051139317, -0.10986042, 0
1124, 1243628467, 0.85387635, 0.4695673, 0.14616066, 0.1704086, 0.14284188, 0.25616014, -0.2973833, 0
1126, 1243661801, 0.852693, 0.47163558, 0.14879487, 0.16832899, -0.070807785, 0.090818234, -0.21949196, 0
1128, 1243695135, 0.8517306, 0.4735539, 0.1504553, 0.166329, 0.5152728, -0.27522, 0.32961273, 0
1130, 1243728469, 0.8505235, 0.47609067, 0.15097716, 0.16478361, 0.11335046, 0.15189582, -0.22235394, 0
1133, 1243778470, 0.8495195, 0.47794977, 0.1528047, 0.16288574, 0.25864908, -0.2755843, 0.24738598, 0
1135, 1243811804, 0.848066, 0.480663, 0.15353213, 0.16178781, -0.036015425, -0.02568745, -0.029632568, 0
1137, 1243845138, 0.84688675, 0.48269677, 0.15445396, 0.16103087, 0.18933737, -0.2384244, 0.12102604, 0
1139, 1243878472, 0.845612, 0.48530263, 0.15487592, 0.15948577, 0.029359879, 0.015270405, 0.08145809, 0
1141, 1243911806, 0.84453434, 0.48672125, 0.15685166, 0.15893948, 0.02688481, -0.12089637, 0.17714405, 0
1142, 1243928473, 0.8439953, 0.48742175, 0.15775053, 0.15876698, 0.10054574, -0.12545112, 0.21154594, 0
1144, 1243961807, 0.84294754, 0.48888335, 0.15946685, 0.1581226, 0.08720905, 0.035846114, 0.042946815, 0
1146, 1243995141, 0.8419128, 0.48995534, 0.16187264, 0.15787263, 0.034710668, 0.014530578, 0.054203033, 0
1148, 1244028475, 0.84103227, 0.49108043, 0.1633226, 0.15757795, 0.04420114, -0.04087918, 0.07728577, 0
1150, 1244061809, 0.84027946, 0.4924988, 0.1634703, 0.15701413, 0.010338927, -0.037337393, -0.058636665, 0
1153, 1244111810, 0.8394888, 0.49411586, 0.1633446, 0.15628992, 0.045562, -0.055310965, 0.062669754, 0
1157, 1244178478, 0.8385718, 0.49600017, 0.1629882, 0.15561584, 0.036718484, -0.047233205, 0.07005501, 0
1159, 1244211812, 0.83828497, 0.49660242, 0.16288981, 0.15534279, -0.01326013, 0.010716999, -0.055419922, 0
1160, 1244228479, 0.8381223, 0.49679273, 0.16314554, 0.15534344, -0.028895978, 0.009904753, -0.03159237, 0
1162, 1244261813, 0.83760315, 0.49727118, 0.16401725, 0.15569517, -0.004996185, 0.06384782, 0.074991226, 0
1164, 1244295147, 0.83715355, 0.49764904, 0.1646742, 0.15621205, 0.062123526, -0.05181522, 0.1252594, 0
1166, 1244328481, 0.83686876, 0.4979296, 0.16483557, 0.15667237, 0.054039508, -0.059165668, -0.0020580292, 0
1168, 1244361815, 0.83652, 0.49827912, 0.16489609, 0.15735884, 0.041664716, -0.022414327, -0.021681786, 0
1169, 1244378482, 0.83645254, 0.49833867, 0.16495292, 0.15746948, -0.024952093, -0.045835353, -0.014606476, 0
1171, 1244411816, 0.83639014, 0.49841544, 0.16506724, 0.15743724, -0.07256449, -0.10409043, -0.033172607, 0
1175, 1244478484, 0.8360042, 0.49897146, 0.16552225, 0.1572477, 0.011830764, 0.03168028, -0.029245377, 0
1177, 1244511818, 0.8357671, 0.49908537, 0.16612276, 0.15751389, 0.0062630563, -0.054779, 0.01710987, 0
1178, 1244528485, 0.8356774, 0.4990942, 0.16639644, 0.15767309, -0.009340607, -0.062439684, 0.009287834, 0
1180, 1244561819, 0.83551776, 0.4992721, 0.16657317, 0.15776883, -0.008916938, -0.08032028, -0.06548405, 0
1182, 1244595153, 0.8353156, 0.49963516, 0.16659991, 0.15766247, -0.04561363, -0.07293183, -0.025503159, 0
1184, 1244628487, 0.8351575, 0.4999007, 0.16663341, 0.15762226, 0.037480664, -0.015189493, -7.343292E-5, 0
1186, 1244661821, 0.83499926, 0.5000959, 0.16684139, 0.15762159, -0.02621427, 0.034322202, -0.06313419, 0
1187, 1244678488, 0.83491516, 0.500113, 0.16710322, 0.15773526, -0.024490763, 0.012164916, -0.03795719, 0
1189, 1244711822, 0.83469796, 0.5001784, 0.16770425, 0.15803893, -0.017892435, -0.030261867, -0.031043053, 0
1191, 1244745156, 0.83452326, 0.5003242, 0.16800703, 0.15817814, -0.0024141634, -0.06050138, 0.036751747, 0
1193, 1244778490, 0.8343947, 0.50045884, 0.16826832, 0.1581526, -0.038157575, -0.08390676, -0.016861916, 0
1195, 1244811824, 0.834223, 0.5007366, 0.16850597, 0.15792608, 0.020948416, 0.0031162177, 0.030059814, 0
1196, 1244828491, 0.8341735, 0.5008003, 0.16859795, 0.1578878, 0.025372632, 0.018529223, 0.029129982, 0
1200, 1244895159, 0.8340653, 0.50086814, 0.16883305, 0.15799208, -0.024253167, -0.06520901, 0.025251389, 0
1202, 1244928493, 0.8341026, 0.50086594, 0.1687095, 0.15793487, -0.016965527, -0.037250668, 0.009937286, 0
1204, 1244961827, 0.83421874, 0.50086147, 0.16835527, 0.15771328, 0.039820958, -0.08918346, 0.101763725, 0
1205, 1244978494, 0.8343285, 0.5009434, 0.16781889, 0.15744382, 0.094146006, -0.12980962, 0.13490391, 0
1207, 1245011828, 0.83475685, 0.5011521, 0.16603352, 0.15639971, 0.14404494, -0.12027232, 0.14544582, 0
1209, 1245045162, 0.8359568, 0.50085694, 0.16246526, 0.15467377, 0.16245514, 0.01444743, 0.20898438, 0
1213, 1245111830, 0.8381053, 0.49881136, 0.15727925, 0.15501708, 0.38027143, 0.09111774, 0.40845394, 0
1214, 1245128497, 0.83857816, 0.49792612, 0.15644073, 0.15614988, 0.3009831, 0.17393689, 0.33755302, 0
1216, 1245161831, 0.8399627, 0.49485227, 0.1554424, 0.15944183, 0.22435527, -0.3068475, 0.66432285, 0
1218, 1245195165, 0.8420842, 0.49171484, 0.15163347, 0.16161099, 0.1700785, -0.2303891, 0.24371529, 0
1220, 1245228499, 0.844352, 0.48787168, 0.14823376, 0.16455413, 0.19553606, -0.089114614, 0.36370945, 0
1222, 1245261833, 0.8467429, 0.4833635, 0.14536944, 0.16808933, 0.13041869, 0.022059388, 0.12941742, 0
1223, 1245278500, 0.8481805, 0.48099294, 0.1432234, 0.16947857, 0.19129993, 0.18196726, 0.10695362, 0
1225, 1245311834, 0.8508648, 0.47602698, 0.13964902, 0.17299095, 0.21246605, -0.01520961, -0.1874981, 0
1227, 1245345168, 0.8530378, 0.4710186, 0.13908942, 0.17641592, -0.29859653, 0.14354673, -0.23417473, 0
1229, 1245378502, 0.85488766, 0.46670958, 0.13969062, 0.17842706, -0.26793045, -0.049169052, -0.32536793, 0
1232, 1245428503, 0.8568034, 0.46102354, 0.14011233, 0.18361363, -0.08078418, -0.12996832, -2.5367737E-4, 0
1234, 1245461837, 0.8573454, 0.45887148, 0.14133468, 0.18552776, -0.42525977, 0.14749552, -0.40729904, 0
1236, 1245495171, 0.85799, 0.45649305, 0.14221515, 0.18772885, -0.09431621, -0.04492968, 0.2139473, 0
1238, 1245528505, 0.8584537, 0.45580873, 0.14156538, 0.18776323, -0.35487074, 0.009950574, -0.51787186, 0
1240, 1245561839, 0.8587879, 0.45467886, 0.14319922, 0.1877353, -0.14957689, 0.03249968, -0.08832836, 0
1241, 1245578506, 0.85868424, 0.45472047, 0.14332515, 0.18801218, 0.10061335, 0.0703221, 0.02928543, 0
1243, 1245611840, 0.85887754, 0.45413214, 0.14452085, 0.18763608, -0.13361101, -0.07616785, -0.20631027, 0
1245, 1245645174, 0.85877645, 0.45438135, 0.1456489, 0.18662095, -0.17010543, -0.044547696, -0.3013754, 0
1247, 1245678508, 0.85849684, 0.45471218, 0.14696972, 0.18606502, -0.01827956, 0.050859924, -7.2956085E-4, 0
1249, 1245711842, 0.8578921, 0.45537895, 0.14850523, 0.18600416, 0.13950293, 0.03484388, -0.022558212, 0
1252, 1245761843, 0.8569347, 0.4561928, 0.15032905, 0.18695562, 0.06914552, -0.050598864, 0.21383, 0
1254, 1245795177, 0.85652107, 0.45645916, 0.15104046, 0.18762621, -0.005258813, 0.016296776, -0.14808464, 0
1256, 1245828511, 0.8560451, 0.45629063, 0.15301065, 0.18860918, 0.057667125, -0.03411523, -0.09805584, 0
1258, 1245861845, 0.8555527, 0.4563718, 0.15451975, 0.18941568, -0.014452012, -0.09442998, -0.066186905, 0
1259, 1245878512, 0.85525507, 0.4566469, 0.1550692, 0.18964748, -0.056245808, -0.14348772, -0.1322546, 0
1261, 1245911846, 0.8549329, 0.45722812, 0.15502432, 0.18973643, -0.06506898, -0.11362103, -0.09129143, 0
1263, 1245945180, 0.8548308, 0.45819074, 0.15361126, 0.18902208, -0.0355066, -0.079416834, -0.04823208, 0
1265, 1245978514, 0.8545482, 0.45960757, 0.15191877, 0.18822643, -0.06667715, 0.07701117, -0.2360487, 0
1267, 1246011848, 0.8539022, 0.4607715, 0.15195565, 0.18828247, -0.15647326, 0.12638317, -0.26448917, 0
1268, 1246028515, 0.8536174, 0.46098518, 0.15270294, 0.18844628, -0.10586244, 0.11599786, -0.18725109, 0
1274, 1246128517, 0.85382926, 0.4628995, 0.14821102, 0.18636867, -0.4614207, -0.06237062, -0.2157402, 0
1276, 1246161851, 0.8540053, 0.46440768, 0.145169, 0.18419227, -0.10852761, -0.08162693, 0.01641655, 0
1277, 1246178518, 0.85419106, 0.46525902, 0.14290307, 0.18295042, 0.04116885, 0.056307383, -0.19965935, 0
1279, 1246211852, 0.85401577, 0.46695015, 0.14129683, 0.18069427, -0.29097363, 0.25874978, -0.36348057, 0
1281, 1246245186, 0.85444033, 0.46716836, 0.14184241, 0.17766939, 0.006324858, -0.13905591, 0.10136604, 0
1283, 1246278520, 0.8537501, 0.46964186, 0.14078216, 0.17529438, 0.100935884, -0.1432338, -0.12242222, 0
1285, 1246311854, 0.8530797, 0.4708624, 0.14324564, 0.17327614, -0.2584791, 0.2785986, -0.08942318, 0
1286, 1246328521, 0.85277784, 0.47125933, 0.14424065, 0.17285702, 0.21930934, -0.14899373, 0.054693222, 0
1288, 1246361855, 0.85113925, 0.47442722, 0.14639808, 0.1704366, 0.057490215, 0.082282275, -0.21163273, 0
1290, 1246395189, 0.8497601, 0.47680455, 0.14840254, 0.16894387, 0.109949484, -0.11897192, 0.06987667, 0
1292, 1246428523, 0.848013, 0.47923735, 0.15170749, 0.16790001, 0.08266604, -0.11301217, 0.03610897, 0
1294, 1246461857, 0.84618574, 0.48214898, 0.15427768, 0.16643523, 0.113325536, 0.06328009, 0.06125641, 0
1295, 1246478524, 0.84545285, 0.48314875, 0.15569037, 0.16594514, 0.19213274, 0.0069427593, 0.17742825, 0
1297, 1246511858, 0.8438557, 0.48547003, 0.1576486, 0.16544929, 0.15986228, -0.20763773, 0.22689056, 0
1299, 1246545192, 0.8423678, 0.48728818, 0.16055696, 0.16488868, -0.15162235, 0.03383405, 0.1071291, 0
1301, 1246578526, 0.84134924, 0.4881335, 0.16370603, 0.16449302, 0.14762829, -0.054885842, 0.27632904, 0
1303, 1246611860, 0.8403352, 0.4892634, 0.16589716, 0.16412312, 0.055015255, -0.12352622, 0.17842865, 0
1304, 1246628527, 0.83977664, 0.48983467, 0.16696042, 0.1642001, 0.023490876, -0.05699491, 0.1714325, 0
1306, 1246661861, 0.83901507, 0.49095955, 0.16785277, 0.16382302, 0.049029466, -0.042517975, 0.075478554, 0
1310, 1246728529, 0.83789045, 0.49196914, 0.16985676, 0.1644834, 0.13384727, 0.027340999, 0.11952591, 0
1312, 1246761863, 0.8375455, 0.49198845, 0.17053539, 0.16547719, 0.095947966, 0.050305612, -0.03832531, 0
1313, 1246778530, 0.8374466, 0.49194586, 0.17074125, 0.16589229, 0.03305142, -0.03153455, -0.038269043, 0
1315, 1246811864, 0.8372316, 0.49210396, 0.17081459, 0.16643138, -0.026084073, -1.38131E-4, -0.03974533, 0
1317, 1246845198, 0.83716154, 0.49209446, 0.17075324, 0.16687487, -0.050446875, -0.074789226, 0.0029582977, 0
1319, 1246878532, 0.836808, 0.49250123, 0.17095682, 0.16723946, -0.13648964, -0.034255594, -0.13399029, 0
1321, 1246911866, 0.83651745, 0.49282494, 0.1712823, 0.16740595, -0.028000586, -0.06529797, 0.10688782, 0
1322, 1246928533, 0.8364483, 0.49287024, 0.17134063, 0.16755839, 0.032542035, -0.00803395, 0.045012474, 0
1324, 1246961867, 0.8363241, 0.49274084, 0.1718921, 0.16799343, 0.004479535, -0.034124617, 5.8460236E-4, 0
1328, 1247028535, 0.83630586, 0.49201733, 0.17316648, 0.16889358, -0.09372725, -0.100568764, -0.056632042, 0
1331, 1247078536, 0.8362251, 0.49185866, 0.1736852, 0.16922295, 0.0149589395, -0.05144106, -0.010467529, 0
1333, 1247111870, 0.83614427, 0.49181312, 0.17402408, 0.16940616, -0.017683115, 0.0037509943, -0.099897385, 0
1335, 1247145204, 0.83600986, 0.49170265, 0.17466818, 0.16972724, 0.0042278594, -0.057407513, 8.058548E-4, 0
1337, 1247178538, 0.8359266, 0.4918332, 0.17472778, 0.16969767, -0.055864383, -0.041951146, -0.036403656, 0
1339, 1247211872, 0.8358432, 0.4920562, 0.17462347, 0.16956972, -0.075501226, -0.041201036, -0.005718231, 0
1340, 1247228539, 0.8357858, 0.4921439, 0.17462492, 0.1695958, -0.05875418, -0.043642692, 0.02122116, 0
1342, 1247261873, 0.8357645, 0.49211392, 0.17463924, 0.1697727, -6.802617E-4, -0.06607758, -6.4849854E-4, 0
1344, 1247295207, 0.835797, 0.4921255, 0.1745311, 0.1696902, -0.09599222, -0.015526104, 0.0074100494, 0
1346, 1247328541, 0.83591455, 0.49188972, 0.17452876, 0.16979752, 0.0140774045, -0.08969307, 0.060498238, 0
1348, 1247361875, 0.8360322, 0.4918424, 0.17420615, 0.16968675, -0.0254997, -0.053373106, -0.04871559, 0
1351, 1247411876, 0.83616924, 0.49161452, 0.17416483, 0.1697137, -0.0011894242, -0.06623226, -0.0070228577, 0
1353, 1247445210, 0.83620125, 0.49171153, 0.17380002, 0.16964985, -0.04455943, 0.039552405, 0.046588898, 0
1355, 1247478544, 0.83635217, 0.49178, 0.17300032, 0.16952394, -0.019518828, -0.15856546, 0.0145225525, 0
1357, 1247511878, 0.8366157, 0.4921222, 0.17142096, 0.168835, 0.056520168, -0.1550107, 0.10188866, 0
1358, 1247528545, 0.8367916, 0.4925028, 0.17011248, 0.16817468, 0.015143002, -0.04557787, 0.04374981, 0
1360, 1247561879, 0.837287, 0.49271855, 0.1679979, 0.1672003, -0.059331737, -0.0799707, 0.021464348, 0
1362, 1247595213, 0.83769476, 0.4931615, 0.16592173, 0.1659202, -0.11805429, -0.018529223, -0.18985748, 0
1364, 1247628547, 0.8378762, 0.49352723, 0.16491447, 0.16491748, -0.027656823, -0.14758739, 0.16708565, 0
1366, 1247661881, 0.8381817, 0.49361122, 0.16381358, 0.16421002, -0.004557094, 0.021275751, 0.12364864, 0
1367, 1247678548, 0.8384139, 0.49362653, 0.1628791, 0.16390772, 0.1393287, -0.2948605, 0.37938976, 0
1371, 1247745216, 0.8403346, 0.49144036, 0.15966304, 0.16380516, 0.14629884, -0.23324561, 0.386549, 0
1373, 1247778550, 0.84167045, 0.4897081, 0.1580064, 0.16374038, -0.0137877315, -0.1075522, 0.20486546, 0
1375, 1247811884, 0.8431582, 0.48807392, 0.15555051, 0.16331655, -0.031244988, -0.08841636, 0.04848671, 0
1376, 1247828551, 0.8440949, 0.486935, 0.1542339, 0.16312608, -0.1205801, 0.044990923, -0.04545498, 0
1378, 1247861885, 0.8459908, 0.48443526, 0.15250252, 0.16237427, -0.087918036, -0.29096872, 0.09633446, 0
1380, 1247895219, 0.84763616, 0.48321173, 0.149643, 0.1600826, -0.057688806, 0.04410939, -0.04876423, 0
1382, 1247928553, 0.84932935, 0.48116073, 0.14756167, 0.15921646, 0.11017535, -0.006709859, -0.08643246, 0
1384, 1247961887, 0.8513273, 0.4783736, 0.14593467, 0.15844305, 0.2545579, 0.13886234, -0.15367126, 0
1385, 1247978554, 0.8522045, 0.47679123, 0.14669925, 0.15778887, -0.087733194, 0.16740003, -0.10654831, 0
1387, 1248011888, 0.85361457, 0.4740074, 0.14731324, 0.15798114, -0.0031038127, 0.0039602024, 0.109311104, 0
1389, 1248045222, 0.8544933, 0.4725698, 0.14572965, 0.15900348, 0.046840716, 0.30219445, 0.031467438, 0
1391, 1248078556, 0.85545033, 0.47030452, 0.14634958, 0.16000181, -0.22626485, 0.10208686, -0.28625202, 0
1393, 1248111890, 0.8554728, 0.46961448, 0.14714725, 0.16117197, -0.08058927, 0.24780926, -0.14140224, 0
1394, 1248128557, 0.85513693, 0.46976808, 0.14729598, 0.16236614, -0.01625431, 0.31580904, -0.24544525, 0
1396, 1248161891, 0.8552069, 0.4693736, 0.14715211, 0.16326623, -0.049519967, -0.044069603, -0.096497536, 0
1398, 1248195225, 0.85540205, 0.46982202, 0.1447801, 0.1630759, -0.01225365, -0.23168012, -0.032302856, 0
1400, 1248228559, 0.8556405, 0.4699889, 0.14304042, 0.16287825, -0.0364962, -0.16606544, -0.24400139, 0
1402, 1248261893, 0.8555978, 0.46986493, 0.14383301, 0.16276212, -0.14479661, 0.16063787, -0.048469543, 0
1403, 1248278560, 0.8556274, 0.46975493, 0.14364594, 0.16308878, 0.04205061, 0.03704593, 0.06823063, 0
1407, 1248345228, 0.85570604, 0.46912196, 0.14434914, 0.16387519, -0.022405162, 0.020233287, -0.1353569, 0
1409, 1248378562, 0.85571104, 0.46856886, 0.14513643, 0.16473423, 0.080872014, -0.03563333, 0.008386612, 0
1411, 1248411896, 0.8555876, 0.46829274, 0.14584433, 0.16553362, 0.05773999, -0.23730996, 0.069621086, 0
1412, 1248428563, 0.8554883, 0.46837375, 0.14600912, 0.16567257, 0.109219156, -0.17326322, -0.10425472, 0
1414, 1248461897, 0.85535264, 0.46809426, 0.14700806, 0.16627815, 0.05493155, -0.101602286, -0.15598202, 0
1416, 1248495231, 0.8550993, 0.46790308, 0.14831989, 0.16695283, 0.038166847, -0.14718463, -0.081430435, 0
1418, 1248528565, 0.8547173, 0.46820456, 0.14923492, 0.16724838, -0.06541945, 0.061713267, -0.09808922, 0
1420, 1248561899, 0.8543609, 0.46836993, 0.15015492, 0.16778272, -0.062285237, -0.06489162, -0.17820072, 0
1421, 1248578566, 0.85417455, 0.4685457, 0.15048246, 0.1679462, -0.045456834, -0.06466811, -0.21595573, 0
1423, 1248611900, 0.85368985, 0.469224, 0.1508763, 0.1681642, -0.11265053, -6.580221E-4, -0.15245342, 0
1427, 1248678568, 0.8533798, 0.47014347, 0.1501723, 0.16779971, -0.25752982, -0.047594402, -0.20013809, 0
1429, 1248711902, 0.8534977, 0.470576, 0.14938311, 0.1666874, -0.10147309, -0.09837252, -0.0075740814, 0
1430, 1248728569, 0.8536355, 0.47082517, 0.14859968, 0.16597743, -0.015981289, -0.04996766, -0.110061646, 0
1432, 1248761903, 0.8540279, 0.47106346, 0.14727369, 0.16445741, -0.036325213, -0.0015811307, -0.13601875, 0
1434, 1248795237, 0.8545619, 0.47123435, 0.14500171, 0.16320808, -0.046223596, -0.14422531, 0.24400616, 0
1436, 1248828571, 0.854607, 0.4731023, 0.14134483, 0.1607569, -0.21836892, 0.019271286, -0.16868782, 0
1438, 1248861905, 0.85472137, 0.4743821, 0.13856868, 0.15878235, -0.13360499, 0.02823952, -0.31908035, 0
1439, 1248878572, 0.85474825, 0.47459593, 0.13805503, 0.15844609, -0.076033965, 0.08000781, -0.123057365, 0
1441, 1248911906, 0.8547571, 0.47525352, 0.13759977, 0.15681486, 0.14963242, -0.037129525, -0.18133163, 0
1443, 1248945240, 0.8545437, 0.476132, 0.13761824, 0.15528983, -0.019064203, -0.020109907, -0.21365833, 0
1447, 1249011908, 0.85342544, 0.47813523, 0.13907632, 0.15397952, 0.2223427, 0.021793853, -0.13563633, 0
1448, 1249028575, 0.8530537, 0.47857037, 0.13959096, 0.15422276, -0.040931817, 0.20309684, -0.24740028, 0
1450, 1249061909, 0.85256076, 0.47856075, 0.14125513, 0.15545815, 0.19612949, -0.22743337, 0.1394329, 0
1452, 1249095243, 0.8512627, 0.47995958, 0.143378, 0.15631294, -0.03889349, 0.07993181, -0.071406364, 0
1456, 1249161911, 0.84840345, 0.48250496, 0.14811237, 0.15957312, -0.17631853, -0.06272757, -0.02678585, 0
1457, 1249178578, 0.84795827, 0.48272547, 0.14934863, 0.1601189, -0.13626412, -0.13842069, 0.071575165, 0
1459, 1249211912, 0.8468422, 0.48437214, 0.15026979, 0.16019124, 0.02172747, -0.08283211, 0.03163433, 0
1461, 1249245246, 0.84577054, 0.4852803, 0.15283589, 0.16067535, -0.1297391, 0.070643954, 0.025409698, 0
1463, 1249278580, 0.84496427, 0.48543224, 0.15585129, 0.16155952, 0.06368297, -0.07499351, 0.22531986, 0
1465, 1249311914, 0.8440939, 0.48602518, 0.15793997, 0.16229706, -0.08627511, -0.12629421, 0.036112785, 0
1468, 1249361915, 0.84301484, 0.48669395, 0.16092895, 0.16296346, -0.05010389, -0.09947399, 0.15825844, 0
1470, 1249395249, 0.8425196, 0.48707417, 0.16241783, 0.16291164, -0.034819294, -0.061593913, 0.038028717, 0
1472, 1249428583, 0.8420543, 0.4875947, 0.16349116, 0.16268714, -0.06177384, -0.040209536, 0.12171745, 0
1474, 1249461917, 0.8418708, 0.48757988, 0.16432886, 0.16283667, 0.10126445, 0.035382994, 0.10759926, 0
1475, 1249478584, 0.8417801, 0.48754287, 0.16475055, 0.16299033, 0.072162725, 0.041336484, 0.0116529465, 0
1477, 1249511918, 0.84157807, 0.48725554, 0.16608565, 0.16353664, -0.033236377, -0.04801729, -0.0034666061, 0
1479, 1249545252, 0.8415506, 0.48697728, 0.16681954, 0.16375925, -0.077092186, -0.12221778, -0.0035705566, 0
1481, 1249578586, 0.8416285, 0.4867214, 0.16709049, 0.16384405, -0.057728034, -0.015748722, -0.021531105, 0
1483, 1249611920, 0.8417377, 0.48637906, 0.16751727, 0.1638634, 0.06712653, -0.07933324, 0.023927689, 0
1484, 1249628587, 0.8417379, 0.486324, 0.1676561, 0.16388357, 0.029592892, 0.052747715, -0.20161629, 0
1486, 1249661921, 0.84157985, 0.48618224, 0.16858989, 0.164158, -0.18898915, -0.0072950157, 0.15427971, 0
1488, 1249695255, 0.8415733, 0.48601604, 0.16889091, 0.16437463, -0.018562974, -0.02097669, -0.01052475, 0
1490, 1249728589, 0.84150434, 0.4859914, 0.16912818, 0.16455635, -0.08480618, -0.04003385, -0.029762268, 0
1492, 1249761923, 0.8414056, 0.48583025, 0.16977407, 0.16487136, -0.09292238, -0.032053992, -0.011688232, 0
1493, 1249778590, 0.84138805, 0.48572966, 0.17002174, 0.16500242, -0.06535597, -0.08642709, 0.009346962, 0
1495, 1249811924, 0.8412676, 0.48566666, 0.17056601, 0.16524, -0.09875573, -0.06860417, 0.031600952, 0
1497, 1249845258, 0.84115964, 0.48553273, 0.17104273, 0.16568954, 0.022176955, -0.031415194, 0.024365425, 0
1499, 1249878592, 0.84108067, 0.4854388, 0.17135999, 0.1660377, -0.062064853, -0.052280575, -0.06304169, 0
1501, 1249911926, 0.84092504, 0.48543233, 0.17186265, 0.16632491, -0.07870416, -0.051728945, 0.015129089, 0
1504, 1249961927, 0.84081584, 0.48528606, 0.17241919, 0.1667273, -0.0396265, -0.07003152, -0.056713104, 0
1506, 1249995261, 0.8407286, 0.48519292, 0.17279081, 0.16705357, -0.012866635, -0.058870185, 0.0061616898, 0
1508, 1250028595, 0.8406961, 0.48514637, 0.1728412, 0.1672994, -0.050266165, -0.07967254, 0.035842896, 0
1510, 1250061929, 0.84071714, 0.48506176, 0.17280768, 0.1674741, -0.08047159, -0.037523355, -0.013867378, 0
1511, 1250078596, 0.8407459, 0.4849763, 0.17279874, 0.16758613, -0.08052937, -0.027399112, -0.006937027, 0
1513, 1250111930, 0.8408812, 0.48487726, 0.17237838, 0.1676274, -0.0088438485, -0.053305604, 0.010713577, 0
1515, 1250145264, 0.8409254, 0.48487866, 0.17209958, 0.16768762, -0.06297131, -0.020125106, 0.0209198, 0
1517, 1250178598, 0.84104884, 0.48462135, 0.17193449, 0.16798158, -0.00772539, -0.022228811, -0.008800507, 0
1519, 1250211932, 0.84113026, 0.48465943, 0.17155147, 0.16785571, -0.104228005, -0.10136044, -0.042458534, 0
1520, 1250228599, 0.84117645, 0.484628, 0.17143145, 0.16783765, -0.08651102, -0.053771406, -0.028941154, 0
1524, 1250295267, 0.84126735, 0.48466322, 0.17093705, 0.16778353, -0.065792605, -0.10614988, 0.008633614, 0
1526, 1250328601, 0.8413183, 0.4846702, 0.17075402, 0.16769458, -0.077216685, -0.019032128, 0.008220673, 0
1528, 1250361935, 0.84138024, 0.48464665, 0.17059281, 0.16761637, -0.01041481, -0.032264095, -0.030036926, 0
1529, 1250378602, 0.8413956, 0.4846579, 0.17050315, 0.16759776, -0.07601709, -0.049003426, -0.05056286, 0
1531, 1250411936, 0.84140736, 0.48465288, 0.17043477, 0.1676234, -0.047417715, -9.119329E-5, -0.0344944, 0
1533, 1250445270, 0.84140605, 0.48471332, 0.17031601, 0.16757543, -0.008662133, -0.040825535, 0.04604149, 0
1535, 1250478604, 0.84148425, 0.4847964, 0.16990568, 0.16735865, -0.070239395, -0.044636432, 0.010951996, 0
1537, 1250511938, 0.8416933, 0.4848348, 0.16909808, 0.1670141, 0.0025119504, -0.1319759, 0.08609009, 0
1538, 1250528605, 0.8418097, 0.4849754, 0.1684133, 0.16671164, -0.038575206, -0.082052946, 0.008812904, 0
1540, 1250561939, 0.84224826, 0.48487875, 0.16700953, 0.16618817, 0.05918053, -0.014003981, 0.16563034, 0
1544, 1250628607, 0.8438093, 0.48488152, 0.16122344, 0.1639599, 0.029682186, -0.037249774, -0.17295265, 0
1546, 1250661941, 0.8437972, 0.48501834, 0.16107617, 0.16376245, -0.033650547, -0.080975614, 0.11784744, 0
1547, 1250678608, 0.84382015, 0.4848701, 0.16116844, 0.16399315, 0.04191337, -0.020657068, 0.1764183, 0
1549, 1250711942, 0.8440128, 0.4838099, 0.16178258, 0.16552125, 0.019650588, 0.060401693, 0.24879551, 0
1551, 1250745276, 0.84480274, 0.48239467, 0.16130055, 0.16609073, 0.124435365, -0.423916, 0.4614992, 0
1553, 1250778610, 0.84572375, 0.48159915, 0.15883864, 0.16608469, -0.19080228, -0.047095075, 0.075512886, 0
1555, 1250811944, 0.84716094, 0.47971857, 0.15615009, 0.16675086, 0.17213191, -0.08156524, 0.30460072, 0
1556, 1250828611, 0.8480978, 0.47832307, 0.15488829, 0.16717355, 0.13560207, -0.068835735, 0.13785458, 0
1558, 1250861945, 0.8498253, 0.47620806, 0.15181339, 0.16725938, 0.03993506, 0.018255644, 0.05292797, 0
1560, 1250895279, 0.8514128, 0.47335845, 0.15002033, 0.16888545, 0.17617212, 0.13820343, -0.10289478, 0
1564, 1250961947, 0.8549913, 0.46667287, 0.14859843, 0.17066103, -0.10683428, 0.24214411, 0.026855469, 0
1565, 1250978614, 0.85619307, 0.46444812, 0.14803204, 0.1711956, -0.21932265, -0.08548611, 0.047995567, 0
1567, 1251011948, 0.85812366, 0.46125114, 0.1452701, 0.17253348, -0.02216075, 0.054856338, 0.0620718, 0
1569, 1251045282, 0.859948, 0.45805177, 0.14295168, 0.17390558, -0.2676153, -0.0050648036, -0.15268898, 0
1571, 1251078616, 0.86144435, 0.45470265, 0.14232838, 0.17578915, -0.08937032, 0.16063161, -0.23138237, 0
1573, 1251111950, 0.8627854, 0.45142615, 0.1429212, 0.17717038, -0.029839426, -0.08127311, -0.16140747, 0
1574, 1251128617, 0.863303, 0.4503746, 0.14314856, 0.17714225, -0.20882167, -0.12392855, -0.14951229, 0
1576, 1251161951, 0.8643852, 0.44863304, 0.14168143, 0.17746358, -0.07646177, 0.0040209983, -0.30546856, 0
1578, 1251195285, 0.8645021, 0.44831848, 0.14134686, 0.17795515, -0.2557034, 0.013782703, -0.35511303, 0
1580, 1251228619, 0.8646916, 0.448264, 0.14086734, 0.17755058, -0.12726124, 0.2589076, -0.26195145, 0
1582, 1251261953, 0.86439514, 0.44877416, 0.14000075, 0.17838944, -0.017357681, -0.038138464, -0.21408558, 0
1583, 1251278620, 0.8642009, 0.44897673, 0.14022334, 0.17864648, -0.28066522, -0.1943244, -0.31911182, 0
1585, 1251311954, 0.86384714, 0.44975966, 0.14024508, 0.17836992, 0.004718694, -0.09722411, -0.10967541, 0
1587, 1251345288, 0.86335754, 0.45098406, 0.14028123, 0.17761892, -0.06740826, -0.05901569, -0.037187576, 0
1589, 1251378622, 0.8631923, 0.45152926, 0.1401601, 0.17713244, -0.12914678, -0.13814352, 0.07889271, 0
1591, 1251411956, 0.8628806, 0.45234352, 0.14018217, 0.17655505, -0.14768685, -0.055546768, -0.1724844, 0
1592, 1251428623, 0.8627647, 0.45258683, 0.14057136, 0.17618832, -0.12309931, 0.020642763, -0.09468365, 0
1594, 1251461957, 0.86247414, 0.4528728, 0.14186274, 0.17583983, -0.11723165, 0.050193634, -0.2773838, 0
1596, 1251495291, 0.8621551, 0.45301637, 0.1434039, 0.17578486, 0.06899979, -0.03940578, 0.01884079, 0
1600, 1251561959, 0.8619387, 0.45457748, 0.1411131, 0.17466556, 0.022022396, -0.07195016, -0.14779663, 0
1601, 1251578626, 0.86188084, 0.45505452, 0.14030989, 0.17435686, -0.08386139, -0.05618825, -0.20823956, 0
1603, 1251611960, 0.86191475, 0.45567474, 0.13926604, 0.17340377, -0.20577732, -0.089305945, -0.2606783, 0
1605, 1251645294, 0.86202925, 0.45614472, 0.13861081, 0.17211886, -0.1504829, -0.020193055, -0.19832611, 0
1607, 1251678628, 0.8618832, 0.4573464, 0.13737403, 0.17064574, 0.025397778, 0.03183763, 0.15304756, 0
1609, 1251711962, 0.86212, 0.45798084, 0.13570186, 0.16907921, -0.029931514, -0.01973351, -0.19706345, 0
1610, 1251728629, 0.8621168, 0.45818102, 0.13547838, 0.1687317, -0.10615715, -0.009724155, -0.24152374, 0
1612, 1251761963, 0.8623611, 0.45845217, 0.13461867, 0.16743079, 0.03629359, -0.11596746, 0.22933102, 0
1614, 1251795297, 0.8628008, 0.45911354, 0.13268964, 0.16487351, -0.062343128, 0.1726727, -0.10579491, 0
1616, 1251828631, 0.8625152, 0.46038184, 0.13298026, 0.16258138, -0.06224858, -0.16239378, -0.09578419, 0
1619, 1251878632, 0.8608183, 0.46451783, 0.13241327, 0.16025627, -0.21096404, 0.5119457, -0.44373226, 0
1621, 1251911966, 0.8602811, 0.4657343, 0.13416605, 0.15813762, -0.07429392, -0.04492968, 0.09598541, 0
1623, 1251945300, 0.8589982, 0.46827644, 0.13468736, 0.15715885, -0.034518447, -0.088828966, 0.013301849, 0
1625, 1251978634, 0.85752237, 0.47077477, 0.13555686, 0.15700659, 0.17405424, -0.045270313, 0.11645222, 0
1627, 1252011968, 0.856145, 0.47253537, 0.13778786, 0.15729186, 0.07875278, -0.0072252797, -0.032060623, 0
1628, 1252028635, 0.8556084, 0.47300142, 0.13943928, 0.15735568, 0.054639418, -0.1355825, 0.1753397, 0
1630, 1252061969, 0.8540743, 0.4752761, 0.14102922, 0.15741916, -0.032901555, 0.14447877, 0.007126808, 0
1632, 1252095303, 0.8528933, 0.47633904, 0.1432037, 0.15864126, 0.22391103, 0.0202087, 0.1337061, 0
1634, 1252128637, 0.8520996, 0.47664186, 0.14622775, 0.15923722, -0.20364667, -0.24391611, 0.13440704, 0
1636, 1252161971, 0.85107905, 0.47769243, 0.14852157, 0.15942429, -0.12892865, -0.087132506, 0.06758404, 0
1639, 1252211972, 0.8497586, 0.47975868, 0.1500829, 0.15879881, 0.09014568, -0.0859081, 0.076215744, 0
1641, 1252245306, 0.8486612, 0.48115796, 0.15203659, 0.15857597, -0.18718182, 0.039180927, -0.07287598, 0
1643, 1252278640, 0.8476074, 0.48198712, 0.15482679, 0.15899451, 0.02212443, -0.030925253, 0.15563107, 0
1645, 1252311974, 0.8468638, 0.48303795, 0.15589528, 0.15872248, 0.038019776, -0.12766837, 0.11996555, 0
1646, 1252328641, 0.8465484, 0.48342428, 0.15636985, 0.15876184, -0.052926973, 0.011885078, -0.03524685, 0
1648, 1252361975, 0.84604114, 0.48378286, 0.15771206, 0.15904619, -0.032718945, -0.010005781, 0.016945839, 0
1650, 1252395309, 0.84559935, 0.4842083, 0.15882386, 0.15899494, -0.047380947, -0.14056998, 0.10593891, 0
1652, 1252428643, 0.84514344, 0.48503417, 0.15907708, 0.15864728, -0.046866085, -0.065085635, 0.0016078949, 0
1654, 1252461977, 0.84483105, 0.485678, 0.15923272, 0.15818529, -0.06557345, -0.050768286, -0.11046219, 0
1655, 1252478644, 0.84460914, 0.48600245, 0.15955856, 0.15804498, -0.062574126, 0.02073932, -0.10601902, 0
1659, 1252545312, 0.8440995, 0.48683622, 0.16015045, 0.1576022, 0.03649374, -0.012151953, 0.042578697, 0
1661, 1252578646, 0.8439793, 0.48687962, 0.16038762, 0.15787101, 0.08406546, -0.015127804, 0.022427559, 0
1663, 1252611980, 0.84371513, 0.48691308, 0.1611263, 0.15842676, -0.03966338, -0.038363762, 0.052552223, 0
1664, 1252628647, 0.8435745, 0.4869649, 0.16145794, 0.15867871, -0.11916448, -0.044601563, 0.003033638, 0
1666, 1252661981, 0.84335876, 0.48711574, 0.16180715, 0.15900604, -0.08280473, -0.08051205, 0.09016323, 0
1668, 1252695315, 0.8432485, 0.4873448, 0.16162206, 0.15907696, -0.06708071, -0.015402725, -0.06912041, 0
1670, 1252728649, 0.843158, 0.48741767, 0.1618389, 0.15911314, -0.114849, -0.068715036, -0.06676483, 0
1672, 1252761983, 0.84301907, 0.48745924, 0.16235514, 0.15919651, -0.07674954, -0.027766567, 0.012893677, 0
1673, 1252778650, 0.8429342, 0.48750797, 0.16260383, 0.15924302, -0.056020617, -0.011584677, 0.014728546, 0
1675, 1252811984, 0.8428196, 0.48748362, 0.16307089, 0.15944564, -0.004538989, -0.024088439, 0.00855732, 0
1677, 1252845318, 0.84268093, 0.48754707, 0.16337109, 0.15967762, -0.05675061, -0.009115753, -0.014802933, 0
1679, 1252878652, 0.84257627, 0.4876211, 0.16353269, 0.15983766, -0.06621415, -0.042559996, 2.6130676E-4, 0
1681, 1252911986, 0.84248465, 0.4878178, 0.1634868, 0.15976734, -0.14416564, -0.0035091534, -0.042512894, 0
1682, 1252928653, 0.84241635, 0.4878649, 0.16364327, 0.15982334, -0.13562341, -0.02080235, -0.026765823, 0
1684, 1252961987, 0.8423074, 0.48798123, 0.16380805, 0.15987407, -0.019383937, -0.06221394, 0.06329441, 0
1686, 1252995321, 0.8423433, 0.4878744, 0.16391024, 0.15990613, -0.052828293, -0.050622556, -0.012450218, 0
1688, 1253028655, 0.84235024, 0.48770538, 0.16423483, 0.16005222, -0.06877907, -0.029662851, -0.050275803, 0
1690, 1253061989, 0.84226495, 0.48779455, 0.16444515, 0.16001363, -0.06476969, -0.047397263, -6.971359E-4, 0
1691, 1253078656, 0.8422509, 0.48785773, 0.16441119, 0.15992887, -0.08906499, -0.06359927, 0.04032421, 0
1695, 1253145324, 0.8422171, 0.4877311, 0.16470174, 0.16019487, -0.010704148, -0.021850627, -0.054965973, 0
1697, 1253178658, 0.84213674, 0.48779362, 0.16490471, 0.1602175, -0.12128182, -0.044660572, 7.534027E-5, 0
1699, 1253211992, 0.8420521, 0.48787925, 0.1649879, 0.16031557, -0.026535459, -0.028701298, 0.0025482178, 0
1700, 1253228659, 0.8420243, 0.48789483, 0.16502187, 0.1603795, -0.042258143, -0.03397218, -0.055932045, 0
1702, 1253261993, 0.841913, 0.48792395, 0.16531226, 0.16057622, -0.06893352, -0.01689311, -0.042559624, 0
1704, 1253295327, 0.84184074, 0.4878549, 0.16565913, 0.16080767, -0.06285956, -0.06570834, -0.01406002, 0
1706, 1253328661, 0.84175956, 0.48781344, 0.16603579, 0.16096994, -0.04430675, -0.02951131, -0.0070619583, 0
1708, 1253361995, 0.84169054, 0.48776573, 0.16635226, 0.16114822, -0.065347925, -0.018441606, -0.003358841, 0
1709, 1253378662, 0.8416566, 0.48774946, 0.16648215, 0.16124001, -0.037989378, -0.059862133, 0.021689415, 0
1711, 1253411996, 0.84170806, 0.48763648, 0.16651815, 0.16127612, -0.025480589, -0.06062029, 0.017577171, 0
1715, 1253478664, 0.8418868, 0.4871383, 0.16677296, 0.16158524, -0.035690438, -0.06899264, -0.020207405, 0
1717, 1253511998, 0.8419902, 0.4869618, 0.16674234, 0.1616103, -0.033073884, -0.090717204, -0.015128136, 0
1718, 1253528665, 0.84204817, 0.4868943, 0.1666852, 0.1615705, -0.08080395, -0.04073166, 0.011069298, 0
1720, 1253561999, 0.8423939, 0.48669526, 0.165751, 0.16132958, 0.06633071, -0.16221096, 0.1640768, 0
1722, 1253595333, 0.8432831, 0.48649493, 0.16288298, 0.16020541, 0.1090237, -0.077383764, 0.041044235, 0
1724, 1253628667, 0.84411687, 0.48628074, 0.16016519, 0.15920149, -0.08072752, 0.026931522, -0.0088300705, 0
1726, 1253662001, 0.8447047, 0.48587948, 0.15846208, 0.15901275, 0.027880559, 0.016605224, -0.05494976, 0
1727, 1253678668, 0.8448614, 0.48571935, 0.15808637, 0.1590439, 0.08565843, -0.10465011, 0.059809685, 0
1729, 1253712002, 0.8451131, 0.4848723, 0.15845664, 0.15991955, -0.051158875, 0.01746575, 0.21838856, 0
1731, 1253745336, 0.845805, 0.48331168, 0.15863101, 0.16081057, 0.07790991, -0.19319029, 0.44407272, 0
1735, 1253812004, 0.84825706, 0.48003048, 0.15540205, 0.16087592, -0.029419782, -0.32519838, 0.58391094, 0
1736, 1253828671, 0.8489168, 0.4795281, 0.15356854, 0.16065428, 0.17312677, -0.33505577, 0.3819933, 0
1738, 1253862005, 0.850722, 0.4775779, 0.15050863, 0.15980902, 0.11221825, 0.122282594, 0.10733509, 0
1740, 1253895339, 0.85288745, 0.4739574, 0.14930782, 0.16017205, 0.1895134, -0.17755288, 0.2137804, 0
1742, 1253928673, 0.85549027, 0.46963686, 0.14763868, 0.16056381, 0.14306517, 0.15061107, -0.0412302, 0
1744, 1253962007, 0.8581726, 0.46525627, 0.14617497, 0.16034192, -0.048683245, 0.058232725, -0.028637886, 0
1745, 1253978674, 0.85923755, 0.46343267, 0.14567685, 0.16037336, -0.21093677, -0.05230695, -0.17692852, 0
1747, 1254012008, 0.86107004, 0.45994866, 0.14427611, 0.16183376, -0.102089986, 0.17341834, -0.046503067, 0
1749, 1254045342, 0.8627527, 0.45648238, 0.1439896, 0.16293897, -0.093786485, 0.072013415, -0.3151188, 0
1751, 1254078676, 0.8636796, 0.4536021, 0.14420095, 0.16585799, -0.06360989, -0.028834736, -0.20287895, 0
1754, 1254128677, 0.8645413, 0.4513029, 0.1440913, 0.16772659, -0.2418019, 0.018961722, -0.23323059, 0
1756, 1254162011, 0.8652969, 0.44968045, 0.14350575, 0.16868618, -0.18971445, 0.020684335, -0.23082447, 0
1758, 1254195345, 0.86600196, 0.44837502, 0.14228807, 0.16957255, -0.06148964, -0.09404978, -0.016809464, 0
1760, 1254228679, 0.86644274, 0.44782224, 0.14069869, 0.17010704, -0.26414248, -0.06724678, -0.27545547, 0
1762, 1254262013, 0.8663806, 0.44810006, 0.14045249, 0.1698952, -0.29276207, -0.057998035, -0.3031025, 0
1763, 1254278680, 0.86622244, 0.44818026, 0.14082609, 0.17018114, -0.09539432, 0.26317847, -0.11997318, 0
1765, 1254312014, 0.86608255, 0.44843397, 0.1406348, 0.17038229, -0.048293885, -0.04375445, -0.02663517, 0
1767, 1254345348, 0.8658494, 0.44891036, 0.14063618, 0.17031182, -0.081596084, -0.023054691, -0.101367, 0
1769, 1254378682, 0.8658388, 0.4490334, 0.14040478, 0.17023185, -0.075995855, -0.13690639, -0.03173065, 0
1771, 1254412016, 0.8655388, 0.44969204, 0.14061095, 0.1698478, -0.07855173, -0.068398096, -0.12877178, 0
1772, 1254428683, 0.8653687, 0.44997662, 0.14105871, 0.16958998, -0.1319758, -0.044501655, -0.087221146, 0
1774, 1254462017, 0.8649581, 0.45053387, 0.14220877, 0.16924408, -0.07555163, 0.049975708, -0.18930817, 0
1776, 1254495351, 0.864782, 0.45079884, 0.14290366, 0.16885301, 0.07905821, -0.10697419, -0.049907684, 0
1778, 1254528685, 0.8646219, 0.45129403, 0.14315617, 0.16813402, -0.09818231, -0.0665492, -0.11074734, 0
1780, 1254562019, 0.86436975, 0.4517923, 0.1436232, 0.16769423, -0.052692063, -0.003693328, -0.034823418, 0
1781, 1254578686, 0.8642958, 0.4520532, 0.14353299, 0.16744849, -0.017327841, -0.049545668, -5.722046E-4, 0
1783, 1254612020, 0.8642172, 0.45240209, 0.14335983, 0.16706014, 0.03580063, -0.017391097, 0.013407707, 0
1785, 1254645354, 0.86417276, 0.45263797, 0.14315943, 0.16682309, -0.035333935, 0.031101381, -0.10068703, 0
1787, 1254678688, 0.86420214, 0.45284218, 0.14253475, 0.1666514, -0.11077894, -0.07089071, -0.11535168, 0
1790, 1254728689, 0.8642582, 0.4536099, 0.14128463, 0.16533251, -0.1723238, -0.003980095, -0.20674515, 0
1792, 1254762023, 0.86423934, 0.45426744, 0.14027914, 0.16447917, -0.16599469, 0.025332063, -0.18114662, 0
1794, 1254795357, 0.86425924, 0.45473927, 0.13937932, 0.1638344, -0.16210221, -0.027726335, -0.049323082, 0
1796, 1254828691, 0.86461955, 0.45500246, 0.13775757, 0.16256975, -0.03685237, -0.14677492, 3.490448E-4, 0
1798, 1254862025, 0.8643312, 0.45711312, 0.13514674, 0.16035883, -0.1729085, 0.04277278, -0.23967743, 0
1799, 1254878692, 0.8644967, 0.45763364, 0.13414809, 0.1588129, -0.31348184, 0.1665395, -0.095846176, 0
1801, 1254912026, 0.86429584, 0.4593916, 0.13269742, 0.156025, -0.074823536, -0.09082047, -0.2342577, 0
1805, 1254978694, 0.8626777, 0.46319643, 0.13361, 0.15292083, -0.014468888, 0.27688876, -0.14971066, 0
1807, 1255012028, 0.86175394, 0.46479568, 0.13455456, 0.15244816, 0.16652498, 0.07075168, -0.17062378, 0
1808, 1255028695, 0.86119246, 0.46565938, 0.1356531, 0.15201066, 0.010480187, -0.018804591, -0.07625008, 0
1812, 1255095363, 0.8587838, 0.4693718, 0.13990931, 0.150354, 0.05741936, -0.03486534, 0.019780159, 0
1814, 1255128697, 0.8569288, 0.47169226, 0.14322676, 0.15055247, 0.042134203, -0.18660113, 0.012051582, 0
1816, 1255162031, 0.85542136, 0.4739361, 0.14509165, 0.1502916, 0.09710509, 0.17077865, 0.06537056, 0
1817, 1255178698, 0.8546218, 0.4745947, 0.14674602, 0.15115389, 0.02743465, 0.13075016, 0.09009266, 0
1819, 1255212032, 0.85301757, 0.4757477, 0.15066414, 0.15272775, 0.07389942, -0.28914216, 0.16230297, 0
1821, 1255245366, 0.85176617, 0.4767611, 0.15348223, 0.15374161, -0.060370065, -0.020173833, 0.07714844, 0
1823, 1255278700, 0.8506, 0.4784525, 0.15464905, 0.15377556, -0.035204295, -0.23742485, 0.07330608, 0
1825, 1255312034, 0.8495345, 0.47991905, 0.15596554, 0.15376586, -0.20548943, -0.10174801, 0.0953331, 0
1826, 1255328701, 0.8490188, 0.48045027, 0.1569778, 0.15392508, -0.09953646, -0.0120974155, 0.18848515, 0
1828, 1255362035, 0.84820336, 0.4814906, 0.15845747, 0.15365289, 0.019097282, -0.011021424, 0.16996288, 0
1832, 1255428703, 0.84688365, 0.4824449, 0.16167156, 0.15458812, 0.062070105, -0.011403184, 0.0356102, 0
1834, 1255462037, 0.8462167, 0.48297685, 0.16302226, 0.1551609, -0.03379192, -0.0132646, 0.039665222, 0
1835, 1255478704, 0.8459171, 0.48329836, 0.16350411, 0.15528591, -0.14769512, -0.059213053, 0.056699753, 0
1837, 1255512038, 0.8454033, 0.48393694, 0.16407065, 0.1554972, -0.03808281, -0.15214571, 0.16853523, 0
1839, 1255545372, 0.8451052, 0.48439822, 0.16403498, 0.15571858, 0.02140729, 0.024919013, 0.01759243, 0
1841, 1255578706, 0.8447417, 0.48442113, 0.16502446, 0.15657209, -0.027130896, 0.024820667, 0.018119812, 0
1843, 1255612040, 0.84446174, 0.48449832, 0.16579044, 0.15703349, -0.16735935, -0.13542561, 0.078424454, 0
1844, 1255628707, 0.84442663, 0.48452017, 0.16583233, 0.15711059, -0.16694406, -0.06532166, 7.543564E-4, 0
1846, 1255662041, 0.84434736, 0.48463106, 0.16580884, 0.15721866, -0.0471172, -0.08718033, -0.035845757, 0
1848, 1255695375, 0.8442005, 0.48468754, 0.16625382, 0.15736452, 0.002237253, -0.037924785, -0.14862537, 0
1852, 1255762043, 0.84387106, 0.48487854, 0.16720536, 0.1575345, -0.01882616, -0.07006058, -0.016353607, 0
1853, 1255778710, 0.8437504, 0.4850363, 0.16729918, 0.1575946, -0.019090688, 0.013722802, -0.08838081, 0
1855, 1255812044, 0.84353554, 0.48518723, 0.16770855, 0.15784536, -0.067284554, 0.0026352177, 0.020047188, 0
1857, 1255845378, 0.84336185, 0.48536584, 0.1679228, 0.15799598, -0.12987399, -0.026194824, -0.057009697, 0
1859, 1255878712, 0.84316397, 0.48554868, 0.16823342, 0.15816052, -0.044546913, -0.10637205, 0.060372353, 0
1861, 1255912046, 0.8429247, 0.48591575, 0.168303, 0.15823518, -0.11236857, -0.0018524753, 0.011824608, 0
1862, 1255928713, 0.8428381, 0.48597673, 0.16846465, 0.15833668, -0.09254699, -0.032044604, -0.0052042007, 0
1864, 1255962047, 0.8427666, 0.48595878, 0.1687653, 0.15845177, -0.05861281, -0.07060864, -0.03761196, 0
1866, 1255995381, 0.8426871, 0.48602423, 0.16891769, 0.158512, -0.055150367, -0.07251789, 0.04675579, 0
1868, 1256028715, 0.84267455, 0.48603064, 0.16892403, 0.15855217, -0.10909992, 0.028805455, -0.035359383, 0
1870, 1256062049, 0.8426068, 0.4860873, 0.16899388, 0.15866354, -0.09835989, -0.029080376, -0.01908493, 0
1871, 1256078716, 0.84256655, 0.48610863, 0.16907546, 0.15872495, -0.0814023, -0.03809063, -0.02489376, 0
1873, 1256112050, 0.8425211, 0.48609993, 0.16930264, 0.15875101, -0.080742046, -0.036261402, 0.005303383, 0
1875, 1256145384, 0.8425689, 0.48599234, 0.16938211, 0.15874192, -0.028490415, -0.021393767, 0.036849976, 0
1877, 1256178718, 0.84265816, 0.48582855, 0.16926427, 0.15889451, -0.0939188, -0.011119323, 0.0028152466, 0
1879, 1256212052, 0.8427645, 0.48578587, 0.16888544, 0.15886538, -0.06986948, -0.0023254289, -0.045858383, 0
1880, 1256228719, 0.8428159, 0.48573795, 0.16878493, 0.1588453, -0.07346144, -0.01589803, -0.038866043, 0
1882, 1256262053, 0.8429555, 0.48548537, 0.16879424, 0.15886651, -0.10981952, -0.081776686, 0.030919075, 0
1884, 1256295387, 0.8430856, 0.48527142, 0.16868727, 0.15894365, -0.06925962, -0.01552968, -0.013710976, 0
1888, 1256362055, 0.84339434, 0.48472452, 0.16859485, 0.1590732, -0.0798728, 0.012209618, -0.03274536, 0
1889, 1256378722, 0.8434144, 0.4846339, 0.16867937, 0.15915287, -0.03133808, -0.03814338, -0.008000374, 0
1891, 1256412056, 0.84345376, 0.48459116, 0.16856377, 0.15919706, -0.11834329, -0.013298127, -0.015282631, 0
1893, 1256445390, 0.84362996, 0.48427784, 0.16830051, 0.15949501, -0.07522138, -0.10864384, 0.076607704, 0
1895, 1256478724, 0.8441339, 0.48379862, 0.1670909, 0.15955427, 0.0592924, -0.033197932, 0.24006271, 0
1897, 1256512058, 0.845396, 0.4827553, 0.16411817, 0.15911785, 0.10550057, -0.29229906, 0.0692997, 0
1898, 1256528725, 0.84586424, 0.48240268, 0.16300672, 0.15884078, -0.080492936, -0.06553668, -0.2959938, 0
1900, 1256562059, 0.846229, 0.4818856, 0.16276573, 0.15871431, -0.12194375, -0.0061345366, 0.009339333, 0
1902, 1256595393, 0.8466171, 0.48102343, 0.16301784, 0.15900144, 0.031901557, 8.824291E-4, 0.26360893, 0
1904, 1256628727, 0.84740424, 0.47921747, 0.16303192, 0.1602424, 0.07218765, -0.028739743, 0.22347927, 0
1907, 1256678728, 0.8490608, 0.47593513, 0.16233256, 0.16195734, 0.093525976, -0.11822941, 0.27739143, 0
1909, 1256712062, 0.85047007, 0.47414047, 0.16040555, 0.16174646, -0.15565632, -0.32924753, 0.35828018, 0
1911, 1256745396, 0.85200715, 0.4725313, 0.15703967, 0.16166918, 0.017373104, 0.0053500063, 0.22581196, 0
1913, 1256778730, 0.8536403, 0.4706814, 0.15302157, 0.16230221, 0.12998888, 0.045671742, 0.15898228, 0
1915, 1256812064, 0.85569793, 0.46786577, 0.14986664, 0.16255124, 0.18241552, -0.3141421, 0.22383404, 0
1916, 1256828731, 0.8566369, 0.4667439, 0.14812854, 0.16242453, 0.037271567, 0.003416619, -0.027750015, 0
1918, 1256862065, 0.8589342, 0.46316275, 0.1455055, 0.16291308, -0.036672328, 0.07357376, -0.07818413, 0
1920, 1256895399, 0.8613523, 0.45895717, 0.1445908, 0.16286318, 0.027544396, 0.041732997, 0.13892365, 0
1924, 1256962067, 0.8650858, 0.45230713, 0.14232813, 0.1636699, -0.34332106, 0.23972592, -0.15184212, 0
1925, 1256978734, 0.8660325, 0.45022276, 0.14237502, 0.16436867, -0.2433209, 0.024410296, -0.15732002, 0
1929, 1257045402, 0.8689996, 0.44471586, 0.1398909, 0.16582607, -0.3592765, 0.04276831, -0.48262405, 0
1931, 1257078736, 0.87006205, 0.44208655, 0.14022578, 0.16699857, -0.12955761, -0.1997381, -0.20715141, 0
1933, 1257112070, 0.8709518, 0.44081226, 0.13851473, 0.16715644, 0.051551253, -0.012502868, -0.2318039, 0
1934, 1257128737, 0.8712286, 0.44035095, 0.13814366, 0.16723754, -0.060740426, 0.13647589, -0.34316158, 0
1936, 1257162071, 0.8715546, 0.4398807, 0.13679372, 0.16788433, -0.032507055, -0.018953899, -0.1464138, 0
1938, 1257195405, 0.8717342, 0.43969363, 0.13650258, 0.1676787, -0.07613287, -0.11313846, -0.27233505, 0
1940, 1257228739, 0.87147266, 0.4399066, 0.13667305, 0.16833924, 0.058571234, 0.16521229, 0.14785671, 0
1942, 1257262073, 0.8713386, 0.43994614, 0.13713185, 0.1685571, -0.23510312, -0.06039901, -0.1453371, 0
1945, 1257312074, 0.87072587, 0.44059005, 0.13872811, 0.16873527, -0.107923344, 0.037736587, -0.27826023, 0
1947, 1257345408, 0.870246, 0.44092694, 0.1403945, 0.16895247, -0.057216857, 0.021198416, 0.11465359, 0
1951, 1257412076, 0.8692884, 0.44244957, 0.14210524, 0.1684708, -0.109389365, -0.0064883577, -0.15471745, 0
1952, 1257428743, 0.8690248, 0.44268575, 0.14287865, 0.16855626, -0.11109108, 0.011834787, -0.07803345, 0
1954, 1257462077, 0.8686146, 0.44337443, 0.14342019, 0.16840056, -0.049698777, -0.12103875, -0.042467117, 0
1956, 1257495411, 0.86831594, 0.44437394, 0.14281897, 0.16781592, -0.20546462, 0.04371869, -0.052890778, 0
1958, 1257528745, 0.8683793, 0.44501013, 0.14107703, 0.16727468, -0.017518163, -0.14677358, -0.1122303, 0
1960, 1257562079, 0.86815524, 0.44629514, 0.13971454, 0.16615497, -0.17520522, 0.0477636, -0.3554411, 0
1961, 1257578746, 0.86798847, 0.44683778, 0.13957798, 0.16568105, -0.17690413, 0.03187116, -0.3036337, 0
1963, 1257612080, 0.8677891, 0.4478897, 0.13893981, 0.16441728, -0.0942914, -0.036156572, -0.07866478, 0
1965, 1257645414, 0.8676814, 0.44907507, 0.13718472, 0.16322169, -0.03129103, -0.089992575, -0.11351013, 0
1967, 1257678748, 0.86741525, 0.45068687, 0.13524781, 0.1618036, -0.10790647, -0.03517803, -0.18670082, 0
1969, 1257712082, 0.8673242, 0.4520312, 0.13329236, 0.16015576, 0.01124639, -0.13293299, 0.32961082, 0
1970, 1257728749, 0.8675607, 0.45265853, 0.13103491, 0.15896188, 0.0803861, 0.1067851, 0.43059254, 0
1972, 1257762083, 0.86809886, 0.45319122, 0.1263385, 0.15830658, 0.15602702, -0.16304153, 0.03820896, 0
1974, 1257795417, 0.8685308, 0.45350537, 0.1242329, 0.15669543, -0.13263181, -0.05663014, 0.0058403015, 0
1976, 1257828751, 0.8684721, 0.45425308, 0.1223194, 0.1563596, -0.12189424, 0.21225417, -0.3383379, 0
1978, 1257862085, 0.86812085, 0.45462623, 0.123344816, 0.15642047, -0.0103084175, -0.04208637, -0.2544918, 0
1979, 1257878752, 0.8676045, 0.45529473, 0.124345936, 0.1565489, -0.13991196, -0.019206468, -0.050539017, 0
1981, 1257912086, 0.867099, 0.45625037, 0.12605603, 0.15519325, -0.14849207, -0.17193533, 0.018090248, 0
1983, 1257945420, 0.8661841, 0.45814842, 0.12650417, 0.1543446, 0.15302435, -0.12579219, -0.21172905, 0
1987, 1258012088, 0.86373913, 0.46138906, 0.1320065, 0.15378328, 0.06292672, -0.16102275, 0.14067268, 0
1988, 1258028755, 0.8629723, 0.46254435, 0.13317521, 0.15361032, 0.050492022, -0.09666041, 0.14230251, 0
1990, 1258062089, 0.8612698, 0.46486917, 0.13526191, 0.15432288, -0.024576256, -0.01803705, -0.075276375, 0
1992, 1258095423, 0.85963404, 0.46655333, 0.13951787, 0.1545718, -0.051826954, -0.013957043, 0.24946976, 0
1994, 1258128757, 0.85864574, 0.4675944, 0.14206392, 0.15459973, 0.14749408, -0.17655243, 0.18105412, 0
1996, 1258162091, 0.8576996, 0.4685261, 0.14450036, 0.15477267, -0.01811215, -0.06323182, 0.2379961, 0
1997, 1258178758, 0.85736245, 0.4686036, 0.14598806, 0.15500997, -0.08060481, -0.01213273, 0.19560242, 0
1999, 1258212092, 0.8568046, 0.46855375, 0.14868833, 0.15567712, 0.001066045, -0.029663745, -0.008796692, 0
2001, 1258245426, 0.85605925, 0.4690017, 0.15112835, 0.1560784, -0.036014643, -0.03825335, -0.075006485, 0
2003, 1258278760, 0.8554586, 0.46924618, 0.15332815, 0.15649125, -0.16002578, 0.027000813, 0.09934425, 0
2006, 1258328761, 0.8547076, 0.47002822, 0.15492375, 0.15667526, -0.105330594, -0.12995446, 0.02841568, 0
2008, 1258362095, 0.85415363, 0.47078496, 0.15596357, 0.15639263, -0.13768096, -0.002638794, -0.015468597, 0
2010, 1258395429, 0.85376155, 0.47124517, 0.1570984, 0.15601218, -0.02505189, 0.009231979, 0.10731506, 0
2012, 1258428763, 0.85341346, 0.47176862, 0.15774179, 0.15568364, -0.09241031, -0.052109364, -0.0072193146, 0
2014, 1258462097, 0.8530195, 0.47236383, 0.15840308, 0.155367, -0.12384484, -0.079872355, -0.015164375, 0
2015, 1258478764, 0.85279936, 0.472652, 0.15881342, 0.15528078, -0.08572806, 0.03041296, -0.015761375, 0
2017, 1258512098, 0.85237074, 0.4731092, 0.1597126, 0.1553189, 0.030750241, 0.009657101, 0.075790405, 0
2019, 1258545432, 0.85200703, 0.4735283, 0.1603444, 0.15538691, -0.03269626, -0.097064525, 0.023954391, 0
2021, 1258578766, 0.85161096, 0.47390115, 0.1610569, 0.15568301, -0.04381178, -0.012603449, 0.017663956, 0
2023, 1258612100, 0.85127705, 0.4742381, 0.16154748, 0.15597478, -0.016341256, -0.059475455, 0.030057907, 0
2026, 1258662101, 0.85097635, 0.47450155, 0.16198978, 0.15635565, -0.045963988, -0.08371544, 0.07460976, 0
2028, 1258695435, 0.85099584, 0.47442132, 0.16188854, 0.15659752, 0.0166278, -0.053237658, -4.5013428E-4, 0
2030, 1258728769, 0.8510219, 0.47430453, 0.16190237, 0.15679559, -0.03926687, -0.07029259, -0.060474396, 0
2032, 1258762103, 0.8509401, 0.47426257, 0.16217609, 0.15708303, -0.08402288, -0.012640552, -0.0014104843, 0
2033, 1258778770, 0.8509106, 0.47426087, 0.16223955, 0.15718238, -0.052759003, 0.0043182704, -0.022182465, 0
2035, 1258812104, 0.8507951, 0.474269, 0.16250202, 0.15751188, -0.024051335, -0.016770624, -0.02911377, 0
2037, 1258845438, 0.8507029, 0.4742005, 0.16277863, 0.15793048, -0.039711434, -0.0015771075, -0.035943985, 0
2039, 1258878772, 0.8505802, 0.4740629, 0.16335264, 0.15841071, -0.138918, -0.024415214, -0.026657104, 0
2041, 1258912106, 0.8503275, 0.4741037, 0.16411209, 0.15885913, -0.12846921, -0.024234168, -0.036678314, 0
2042, 1258928773, 0.850216, 0.47417054, 0.16434766, 0.15901352, -0.14911813, -0.011463979, 0.10484028, 0
2046, 1258995441, 0.85013616, 0.4738885, 0.16498803, 0.15961629, -0.08862982, -0.010463983, 0.014657021, 0
2048, 1259028775, 0.85017496, 0.47358024, 0.1655037, 0.1597901, -0.037159923, -0.05124392, -0.024726868, 0
2050, 1259062109, 0.8500966, 0.47350034, 0.16596632, 0.15996407, -0.12612523, -0.016352655, -0.04174328, 0
2051, 1259078776, 0.8500601, 0.47343612, 0.16620737, 0.16009763, -0.075103596, -0.0681187, 0.01417923, 0
2053, 1259112110, 0.849986, 0.47344857, 0.16641498, 0.16023877, -0.032725763, -0.05140664, -0.04191971, 0
2055, 1259145444, 0.8498795, 0.47346678, 0.16672257, 0.16043018, -0.11656916, -0.053382047, 0.010648727, 0
2057, 1259178778, 0.8498746, 0.4733912, 0.16677135, 0.16062778, -0.048800588, -0.12505057, 0.059928894, 0
2059, 1259212112, 0.84993625, 0.4733128, 0.16659763, 0.16071299, -0.079815134, -0.05377364, -0.010406494, 0
2060, 1259228779, 0.8499732, 0.47326854, 0.16652586, 0.16072299, -0.07673669, -0.056656957, -0.081477165, 0
2062, 1259262113, 0.85004246, 0.47298717, 0.16675894, 0.1609434, -0.08226462, -0.078440085, -0.0522213, 0
2064, 1259295447, 0.8499878, 0.47297546, 0.16696559, 0.1610513, -0.024757637, -0.008539536, 0.020863533, 0
2066, 1259328781, 0.84997857, 0.4731349, 0.16666198, 0.16094655, -0.09031276, -0.02322076, 0.005317688, 0
2068, 1259362115, 0.85000306, 0.47313663, 0.16648138, 0.16099875, -0.11117657, -0.06992201, -0.0020332336, 0
2069, 1259378782, 0.85003364, 0.47315976, 0.16629596, 0.16096126, -0.06539632, -0.09206007, 0.027739525, 0
2071, 1259412116, 0.8501044, 0.47318247, 0.1659689, 0.16085798, -0.06455758, -6.177898E-4, -0.023817062, 0
2073, 1259445450, 0.8501445, 0.4730295, 0.1660964, 0.16096495, -0.089788616, -0.050063327, -0.0042648315, 0
2075, 1259478784, 0.85016084, 0.47297108, 0.16613242, 0.16101281, -0.04599271, -0.082804844, 0.013379097, 0
2077, 1259512118, 0.8502005, 0.47296575, 0.16598816, 0.16096751, -0.07567411, -0.023491211, -0.026722908, 0
2078, 1259528785, 0.8502267, 0.47292194, 0.16595618, 0.16099083, -0.046622008, -0.02331553, -0.032892227, 0
2082, 1259595453, 0.85036993, 0.4727962, 0.16555381, 0.1610185, -0.053782023, -0.11302603, 0.061393738, 0
2084, 1259628787, 0.85071814, 0.47284475, 0.16404304, 0.1605819, -0.0044258917, -0.16124001, 0.16798496, 0
2086, 1259662121, 0.85150254, 0.47271827, 0.1612474, 0.15962538, -0.011291763, -0.05966276, 0.052765846, 0
2087, 1259678788, 0.85200685, 0.47234792, 0.16003343, 0.15925254, -0.034577344, -0.043117438, 0.05169964, 0
2089, 1259712122, 0.8525556, 0.4719176, 0.15870777, 0.15891801, -0.0544862, 0.04441292, -0.12167835, 0
2091, 1259745456, 0.85280955, 0.47146666, 0.15861008, 0.1589913, -0.016503414, -0.089301474, 0.10454273, 0
2093, 1259778790, 0.8530974, 0.47091982, 0.15816954, 0.15950494, -0.0949758, 0.11427681, 0.15978909, 0
2095, 1259812124, 0.8538118, 0.4697162, 0.15712681, 0.16026048, 0.021115381, -0.22520763, 0.34448528, 0
2096, 1259828791, 0.8543407, 0.46906105, 0.15615526, 0.16031064, -0.082452476, -0.13092406, 0.19782734, 0
2098, 1259862125, 0.8557117, 0.46757355, 0.1533501, 0.16005106, 0.04485257, -0.36487508, 0.36603165, 0
2102, 1259928793, 0.85865337, 0.46422973, 0.14635755, 0.16057602, 0.16065407, -0.10157949, 0.12612915, 0
2104, 1259962127, 0.8602286, 0.46207878, 0.14386478, 0.16060276, -0.1101112, 0.020959256, -0.10442448, 0
2105, 1259978794, 0.8610156, 0.46064463, 0.14339356, 0.16092716, -0.15376562, 0.047146928, 0.04055786, 0
2107, 1260012128, 0.8625701, 0.4583911, 0.14071725, 0.1613985, 0.11235281, 0.04934898, -0.026102066, 0
2109, 1260045462, 0.8642955, 0.45572957, 0.13855366, 0.16157603, -0.10339832, -0.09721205, 0.038690567, 0
2111, 1260078796, 0.8657307, 0.45394745, 0.1367756, 0.16042008, -0.1625109, 0.15687369, -0.24739361, 0
2113, 1260112130, 0.8670256, 0.4515794, 0.1363865, 0.16044231, 0.0027697727, 0.018870752, 0.22752285, 0
2116, 1260162131, 0.86891866, 0.4482331, 0.13475403, 0.16096343, -0.23734182, -0.15528786, -0.21862984, 0
2118, 1260195465, 0.8697028, 0.44641346, 0.13548362, 0.16117167, -0.22875702, 0.07028052, -0.04212284, 0
2120, 1260228799, 0.87023264, 0.4450591, 0.13469759, 0.16270952, 0.1363724, -0.015688822, 0.055371284, 0
2123, 1260278800, 0.8710681, 0.4432784, 0.13442118, 0.16332729, -0.28686938, 0.015124451, -0.22652245, 0
2125, 1260312134, 0.87162095, 0.44204542, 0.13457695, 0.16359064, 0.07796892, -0.105436645, -0.19264126, 0
2127, 1260345468, 0.8717654, 0.44127274, 0.13530338, 0.16430667, -0.0053869975, 0.06707959, -0.24612808, 0
2129, 1260378802, 0.8717667, 0.44080597, 0.13563526, 0.16527584, -0.14358841, 0.028042158, -0.1272583, 0
2131, 1260412136, 0.8718149, 0.44051588, 0.13560845, 0.16581619, -0.13593835, 0.1321194, -0.12755394, 0
2132, 1260428803, 0.8717021, 0.44072914, 0.13538414, 0.16602662, -0.12907024, -0.41512972, -0.08965206, 0
2134, 1260462137, 0.8714979, 0.4413942, 0.1350886, 0.16557129, -0.10247622, 0.12538116, -0.09974098, 0
2136, 1260495471, 0.87125105, 0.44160128, 0.13598116, 0.1655874, -0.113127396, -0.04576115, -0.19510365, 0
2138, 1260528805, 0.87070245, 0.44202986, 0.13804896, 0.16561797, -0.11350435, -0.034187425, -0.11832523, 0
2140, 1260562139, 0.87033325, 0.44223574, 0.13971828, 0.16560929, -0.010983874, -0.08214414, 0.07939243, 0
2143, 1260612140, 0.8701319, 0.4432361, 0.13912737, 0.1644875, -0.15678662, 0.047455154, -0.21178246, 0
2145, 1260645474, 0.8703564, 0.44311252, 0.13865325, 0.1640323, -0.07157455, -0.029526286, -0.2016983, 0
2147, 1260678808, 0.8703944, 0.44344562, 0.1380199, 0.1634629, -0.16094956, 0.038448475, -0.14690685, 0
2149, 1260712142, 0.8704, 0.44407532, 0.1368112, 0.16273826, -0.0042232773, -0.12751906, 0.07325649, 0
2150, 1260728809, 0.8703548, 0.44455066, 0.13603036, 0.16233712, 0.08142622, -0.055806268, -0.036480904, 0
2152, 1260762143, 0.87021923, 0.44542646, 0.13499343, 0.16152659, -0.03372341, 0.026317533, -0.20070839, 0
2154, 1260795477, 0.87005067, 0.44601575, 0.13469386, 0.16105734, -0.102993764, -0.033241518, -0.06702995, 0
2156, 1260828811, 0.8697197, 0.4475593, 0.13281354, 0.16012147, -0.03574989, -0.18243553, 0.11005974, 0
2158, 1260862145, 0.86968786, 0.44957912, 0.12875427, 0.1579372, -0.042695444, -0.051248837, -0.10172844, 0
2159, 1260878812, 0.8695107, 0.4505971, 0.1273494, 0.15714927, -0.020807939, -0.042375375, -0.42665958, 0
2161, 1260912146, 0.86914235, 0.45259526, 0.1261455, 0.15439081, -0.22243372, -0.073775366, -0.30875492, 0
2163, 1260945480, 0.86834, 0.45451558, 0.12704477, 0.15251583, -0.15461509, 0.19726136, -0.04039669, 0
2165, 1260978814, 0.86764145, 0.45585254, 0.12723123, 0.15234646, 0.23783588, 0.045663696, 0.45446777, 0
2167, 1261012148, 0.86725545, 0.4580652, 0.12349458, 0.15097603, 0.06098495, -0.17855199, -0.2420435, 0
2168, 1261028815, 0.86697453, 0.45865425, 0.1234269, 0.15085565, -0.42537645, 0.24523304, -0.75522804, 0
2170, 1261062149, 0.86720324, 0.4578254, 0.12668967, 0.14934652, -0.32791105, -0.040840734, 0.32525253, 0
2172, 1261095483, 0.8666172, 0.45887342, 0.12795435, 0.1484512, 0.2171154, -0.075616665, 0.070640564, 0
2174, 1261128817, 0.86588776, 0.45974395, 0.12920724, 0.14892818, 0.05000387, -0.03538791, -0.08463955, 0
2177, 1261178818, 0.8647535, 0.45999542, 0.13362686, 0.15083016, 0.09027185, -0.08104088, 0.041197777, 0
2181, 1261245486, 0.86239934, 0.46209767, 0.1400745, 0.15202782, -0.006805746, 0.074635446, -0.056170464, 0
2183, 1261278820, 0.8612052, 0.46346918, 0.14268512, 0.15219437, 0.055634834, -0.19026183, 0.18244648, 0
2185, 1261312154, 0.8602652, 0.4643191, 0.14520572, 0.15253603, -0.11064909, -0.04483044, 0.04685974, 0
2186, 1261328821, 0.85982686, 0.46471927, 0.14643128, 0.1526162, -0.115041785, -0.052048568, 0.049791336, 0
2188, 1261362155, 0.85880923, 0.46565422, 0.14901158, 0.15299815, -0.03989114, 0.007090278, 0.09795284, 0
2190, 1261395489, 0.85783935, 0.46635854, 0.15172866, 0.15362355, 0.13918811, -0.044473268, 0.10551643, 0
2192, 1261428823, 0.8570923, 0.46717313, 0.15309659, 0.15396059, -0.055552803, -0.14418419, 0.07497692, 0
2194, 1261462157, 0.8563792, 0.4677881, 0.15470392, 0.15445346, -0.13877405, -0.06706998, 0.072179794, 0
2195, 1261478824, 0.8560791, 0.46804565, 0.15537572, 0.15466255, -0.025630677, -0.050142, 0.098228455, 0
2197, 1261512158, 0.8555098, 0.46857157, 0.15662529, 0.15495916, -0.056255866, -0.072536215, 0.08007622, 0
2203, 1261612160, 0.85468024, 0.46925566, 0.15877928, 0.15527442, -0.07945774, -0.041735232, -0.025467873, 0
2204, 1261628827, 0.8545956, 0.46931577, 0.15909676, 0.1552339, -0.104651675, -0.03294268, -0.06186962, 0
2206, 1261662161, 0.85433733, 0.46952832, 0.1598198, 0.15527076, -0.06797297, -0.06974409, 0.024086952, 0
2208, 1261695495, 0.85402405, 0.4697878, 0.16057333, 0.15543087, -0.010228512, -0.0071841534, 0.057422638, 0
2210, 1261728829, 0.85366315, 0.4699934, 0.16140124, 0.15593348, -0.053516712, 0.03951262, 0.03842926, 0
2212, 1261762163, 0.8534055, 0.47001097, 0.16210258, 0.15656239, -0.11799808, -0.07540612, 0.086811066, 0
2213, 1261778830, 0.8533465, 0.46999782, 0.16221808, 0.15680341, -0.12776771, -0.06671638, -2.8038025E-4, 0
2215, 1261812164, 0.85324013, 0.4700083, 0.16243568, 0.15712494, -0.10154663, -0.06351791, -0.012271881, 0
2217, 1261845498, 0.85315984, 0.47003993, 0.16259205, 0.1573044, -0.11500289, -0.06115985, -0.010792732, 0
2222, 1261928833, 0.852748, 0.4701238, 0.16378683, 0.15804659, -0.038329903, -0.021038828, -0.0707798, 0
2226, 1261995501, 0.8525946, 0.46968463, 0.16504918, 0.15886368, -0.04408849, -0.028175596, -0.0066194534, 0
2228, 1262028835, 0.8525192, 0.46934178, 0.16585274, 0.15944389, -0.083715886, -0.055907294, -0.022701263, 0
2230, 1262062169, 0.85247666, 0.46910775, 0.16621132, 0.1599855, -0.09887755, -0.07733191, -0.03496647, 0
2231, 1262078836, 0.8524186, 0.46912163, 0.16634165, 0.16011862, -0.11170306, -0.051536724, -0.034068108, 0
2233, 1262112170, 0.85237527, 0.4688692, 0.16685845, 0.16055107, -0.045386206, -0.010457277, 0.06864834, 0
2235, 1262145504, 0.852339, 0.46892145, 0.1667499, 0.16070315, -0.13374189, -0.081986785, -0.014846802, 0
2237, 1262178838, 0.85235, 0.46892124, 0.16656876, 0.1608331, -0.09083824, -0.064130336, 0.006196022, 0
2239, 1262212172, 0.8523612, 0.46879354, 0.16662772, 0.16108477, -0.03681158, 0.019133156, -8.4877014E-4, 0
2240, 1262228839, 0.85240364, 0.46868107, 0.1666359, 0.16117933, -0.011077191, -0.0526373, 0.041339874, 0
2242, 1262262173, 0.85247916, 0.46864027, 0.16633704, 0.16120693, -0.13754116, -0.07418663, 0.006966591, 0
2246, 1262328841, 0.8527556, 0.46839744, 0.16575344, 0.16105202, -0.08033581, -0.054973457, 0.030128479, 0
2248, 1262362175, 0.8529276, 0.46828774, 0.16524133, 0.16098705, -0.0660217, 0.012906085, 0.016654015, 0
2249, 1262378842, 0.8530523, 0.4681168, 0.16499448, 0.16107546, -0.054140426, 0.054171495, 0.025131226, 0
