DeviceTag:,Xsens DOT 3,,,,,,,,,,,,,,,,,
FirmwareVersion:,1.3.0,,,,,,,,,,,,,,,,,
AppVersion:,2020.1.1,,,,,,,,,,,,,,,,,
Measurement Mode:,Sensor fusion Mode - Extended (Quaternion),,,,,,,,,,,,,,,,,
StartTime:,2020-06-15 14:15:13.641 +0200,,,,,,,,,,,,,,,,,
© Xsens Technologies B. V. 2005-2020,,,,,,,,,,,,,,,,,,,
PacketCounter,SampleTimeFine,Quat_W,Quat_X,Quat_Y,Quat_Z,FreeAcc_X,FreeAcc_Y,FreeAcc_Z,Status
1, 1807262247, 0.93228513, 0.05458812, -0.3016774, 0.19197755, -0.009459739, 0.0038493401, 0.1295557, 0
2, 1807278914, 0.9323727, 0.054447833, -0.30147302, 0.19191355, -0.03876698, -0.0077959085, 0.117957115, 0
3, 1807295581, 0.9325249, 0.05433076, -0.30107123, 0.19183785, -0.06161716, -0.022027817, 0.12166691, 0
4, 1807312248, 0.93270415, 0.054203216, -0.30057746, 0.19177637, -0.042694774, -0.002896728, 0.09812927, 0
5, 1807328915, 0.93285114, 0.054138735, -0.30017886, 0.19170417, -0.0013325842, 0.001210155, 0.1129694, 0
6, 1807345582, 0.93295074, 0.054071132, -0.2999302, 0.19162786, 0.015841033, 0.014150829, 0.11761379, 0
7, 1807362249, 0.93303627, 0.053972032, -0.2997474, 0.1915254, 0.033870928, 0.01071387, 0.13037872, 0
8, 1807378916, 0.93309367, 0.053876583, -0.29963794, 0.19144374, 0.004303518, -8.4124686E-4, 0.113370895, 0
9, 1807395583, 0.9331495, 0.05379149, -0.29952922, 0.19136573, -0.028366476, -0.0059418124, 0.1121521, 0
10, 1807412250, 0.9331969, 0.05373099, -0.2994316, 0.19130485, -0.034368023, -0.011801484, 0.12472153, 0
11, 1807428917, 0.93323267, 0.053685248, -0.2993498, 0.19127046, -0.026525177, -0.01229338, 0.11579323, 0
12, 1807445584, 0.93326145, 0.053655326, -0.29930913, 0.19120176, -0.018699095, 3.9114768E-4, 0.13507366, 0
13, 1807462251, 0.93329877, 0.053595535, -0.29925746, 0.19111738, -0.005250096, 0.016754977, 0.12551403, 0
14, 1807478918, 0.9333637, 0.053508773, -0.29919636, 0.19092013, 0.039874487, 0.01570363, 0.12162876, 0
15, 1807495585, 0.93349475, 0.053313266, -0.2991124, 0.19046581, 0.050006554, 0.011666035, 0.11205292, 0
16, 1807512252, 0.9334613, 0.05338111, -0.29894805, 0.19086799, 0.034408927, 0.025133697, 0.10319233, 0
17, 1807528919, 0.93354136, 0.053274356, -0.2987851, 0.19076127, 0.030496554, 0.022532564, 0.122299194, 0
18, 1807545586, 0.93332285, 0.053623516, -0.29853415, 0.19212113, -0.02581597, 0.0049950676, 0.100234985, 0
19, 1807562253, 0.9329208, 0.054250382, -0.29823038, 0.19435625, -0.03929246, 0.0026159957, 0.119259834, 0
20, 1807578920, 0.9329916, 0.054134462, -0.29808897, 0.19426559, -0.035083264, -0.008813842, 0.11421776, 0
21, 1807595587, 0.9329821, 0.0541594, -0.2979633, 0.19449733, -0.03481706, -0.015104055, 0.11021328, 0
22, 1807612254, 0.93315923, 0.05388809, -0.29790258, 0.19381428, 0.0010891786, -0.0031947265, 0.101649284, 0
23, 1807628921, 0.9333196, 0.053640347, -0.2978269, 0.193226, 0.018608572, 0.01361613, 0.14709473, 0
24, 1807645588, 0.93333495, 0.05361072, -0.2977154, 0.19333224, 0.006492828, 0.0017747488, 0.10110474, 0
25, 1807662255, 0.9334218, 0.053467635, -0.29760897, 0.19311653, 0.006908115, 0.0069313045, 0.14310646, 0
26, 1807678922, 0.93365866, 0.05308965, -0.29760072, 0.19208577, -0.03826989, -0.009385421, 0.13829517, 0
27, 1807695589, 0.93346906, 0.05338524, -0.29748344, 0.19310392, -0.015940497, -0.016030628, 0.118385315, 0
28, 1807712256, 0.93390065, 0.05268732, -0.29756257, 0.19107623, -0.018377459, 0.0124005545, 0.13267422, 0
29, 1807728923, 0.9339048, 0.052675318, -0.29754284, 0.19109021, -0.006969581, 0.004852522, 0.1350584, 0
30, 1807745590, 0.9339445, 0.05260634, -0.29753566, 0.19092627, 0.004366102, 0.013649321, 0.098350525, 0
31, 1807762257, 0.93399656, 0.052504934, -0.29752263, 0.19071975, 0.0140996445, 0.018187696, 0.1355381, 0
32, 1807778924, 0.9341429, 0.052264865, -0.2975087, 0.1900902, 0.005821171, 0.017678255, 0.093808174, 0
33, 1807795591, 0.9341756, 0.05219745, -0.2974545, 0.19003221, -0.018830743, -0.014822764, 0.11663246, 0
34, 1807812258, 0.93407506, 0.05234058, -0.2974059, 0.19056217, -0.017212957, -0.004508536, 0.10554218, 0
35, 1807828925, 0.9340546, 0.052362144, -0.29738894, 0.19068278, -0.029384578, -0.021634378, 0.10418701, 0
36, 1807845592, 0.93433267, 0.05191322, -0.29746047, 0.18932684, -0.010564117, 0.009385142, 0.12417412, 0
37, 1807862259, 0.93435067, 0.05188905, -0.29744256, 0.18927297, 0.0012333444, 0.00739962, 0.120923996, 0
38, 1807878926, 0.93422174, 0.05209099, -0.29741034, 0.18990347, -0.006100786, 0.002582804, 0.12288952, 0
39, 1807895593, 0.93419456, 0.052142225, -0.29742035, 0.19000754, 0.008011598, -0.0012526225, 0.1178112, 0
40, 1807912260, 0.93424547, 0.052059602, -0.29743457, 0.18975763, 0.022865599, 0.00892314, 0.11966038, 0
41, 1807928927, 0.9342443, 0.05206533, -0.2973941, 0.18982565, 0.017098965, 0.013919381, 0.11020756, 0
42, 1807945594, 0.93410766, 0.052306484, -0.29730275, 0.19057353, 0.019163331, 0.0060840226, 0.12606716, 0
43, 1807962261, 0.9341204, 0.052333202, -0.29726273, 0.19056597, -0.025667334, -0.004880573, 0.10902691, 0
44, 1807978928, 0.9341226, 0.05238795, -0.2972442, 0.1905686, -0.021491218, -0.004820392, 0.11762142, 0
45, 1807995595, 0.9340763, 0.052516274, -0.29723164, 0.19077979, 0.0069660046, 0.0043758806, 0.13180733, 0
46, 1808012262, 0.93405366, 0.052574456, -0.29723266, 0.19087319, 0.011791202, 0.019680036, 0.113269806, 0
47, 1808028929, 0.9340265, 0.05265299, -0.29720712, 0.19102433, 0.013553825, 0.017152663, 0.13066483, 0
48, 1808045596, 0.9341252, 0.052511945, -0.29721916, 0.19056098, 0.010797911, 0.024935665, 0.117403984, 0
49, 1808062263, 0.93406475, 0.05259991, -0.29717094, 0.190908, 0.013531698, 0.00858625, 0.123143196, 0
50, 1808078930, 0.9339807, 0.05273744, -0.29714745, 0.19131725, -0.029934866, -0.012988618, 0.1264534, 0
51, 1808095597, 0.9339829, 0.052750587, -0.29715648, 0.19128871, -0.030100489, -0.004590956, 0.10593319, 0
52, 1808112264, 0.9341015, 0.052586995, -0.29719874, 0.19068845, 0.006267303, 0.02239773, 0.13203526, 0
53, 1808128931, 0.93409187, 0.052627843, -0.29719725, 0.19072628, -0.0023678963, 0.015873834, 0.11867428, 0
54, 1808145598, 0.93416655, 0.05249002, -0.29720718, 0.19038282, 0.02075452, 0.042378336, 0.14344883, 0
55, 1808162265, 0.9342554, 0.05233302, -0.29717737, 0.19003655, 0.030259185, 0.025717009, 0.11970234, 0
56, 1808178932, 0.9344443, 0.05202412, -0.29717174, 0.18919963, -0.005556532, 0.015079414, 0.13342285, 0
57, 1808195599, 0.9344934, 0.051933527, -0.29714072, 0.18903044, -0.021716295, -0.0066582835, 0.10156536, 0
58, 1808212266, 0.9344523, 0.051987395, -0.2971455, 0.18921115, -0.030053552, -0.021002563, 0.1272583, 0
59, 1808228933, 0.9344991, 0.051915746, -0.29719555, 0.18892068, -0.006809322, 0.025890233, 0.11800003, 0
60, 1808245600, 0.9344646, 0.05198217, -0.2972346, 0.18901175, -0.010544447, -0.015500791, 0.11912823, 0
61, 1808262267, 0.93445206, 0.05199715, -0.29726243, 0.18902576, 0.030189447, 0.024322065, 0.13744259, 0
62, 1808278934, 0.9344214, 0.0520447, -0.29726255, 0.18916392, 0.016723016, -0.001439144, 0.13291454, 0
63, 1808295601, 0.9343646, 0.052142188, -0.29721516, 0.1894917, 0.029085293, 0.007434432, 0.14595509, 0
64, 1808312268, 0.9343596, 0.052150875, -0.29716727, 0.18958929, 0.011301039, 0.009529531, 0.120079994, 0
65, 1808328935, 0.93437225, 0.05214049, -0.29708228, 0.18966353, 0.0040033404, 0.016380481, 0.11008453, 0
66, 1808345602, 0.9344116, 0.052078135, -0.29701436, 0.1895926, 0.0010543106, -0.011034555, 0.11583805, 0
67, 1808362269, 0.93437475, 0.052146554, -0.29693392, 0.18988131, -0.016955245, 0.008858265, 0.10489273, 0
68, 1808378936, 0.93442786, 0.05201864, -0.2969462, 0.18963613, -0.03129226, 1.7299903E-4, 0.12446499, 0
69, 1808395603, 0.93447846, 0.05190208, -0.2969552, 0.18940397, -0.020607447, -0.010741865, 0.10588169, 0
70, 1808412270, 0.9344867, 0.051886376, -0.29697368, 0.1893385, -0.008515843, -0.0030346913, 0.121180534, 0
71, 1808428937, 0.93450797, 0.05185172, -0.2970154, 0.18917756, -0.004796588, 0.007940801, 0.11669159, 0
72, 1808445604, 0.9345358, 0.05179372, -0.29704806, 0.18900496, -0.0027563618, 0.006366152, 0.09843731, 0
73, 1808462271, 0.93456995, 0.051720202, -0.29711905, 0.18874411, 0.0019740665, -0.0025646435, 0.14351082, 0
74, 1808478938, 0.93459284, 0.051647343, -0.29723704, 0.1884644, -0.016863829, -0.011309532, 0.108896255, 0
75, 1808495605, 0.9346195, 0.05160349, -0.2973744, 0.1881284, -0.015517834, -0.012079869, 0.11712456, 0
76, 1808512272, 0.9346638, 0.051551733, -0.29747182, 0.1877679, 0.017287163, 0.014268285, 0.11507416, 0
77, 1808528939, 0.93457794, 0.051721387, -0.29749894, 0.18810533, 0.031719618, 0.040694892, 0.12620449, 0
78, 1808545606, 0.93458104, 0.051745944, -0.29748783, 0.18810059, 0.025952313, 0.050623283, 0.1267147, 0
79, 1808562273, 0.9345962, 0.051740255, -0.29745346, 0.18808095, 0.01063497, 0.010518911, 0.13571167, 0
80, 1808578940, 0.9346312, 0.05168892, -0.29743522, 0.18794967, -0.006328546, 0.002349233, 0.10569763, 0
81, 1808595607, 0.93468547, 0.05160142, -0.29741505, 0.18773626, 0.0051349867, 0.0010076523, 0.12291145, 0
82, 1808612274, 0.93472064, 0.051534068, -0.29740772, 0.18759054, 0.002598785, 0.0063410625, 0.12154484, 0
83, 1808628941, 0.93471885, 0.05154097, -0.29736546, 0.18766463, 0.005238473, 0.00457816, 0.10446453, 0
84, 1808645608, 0.9347161, 0.051541876, -0.29734507, 0.18771014, 0.0084253205, 0.014164519, 0.1283083, 0
85, 1808662275, 0.9346851, 0.051620796, -0.29731408, 0.18789189, 0.001975184, 0.003614428, 0.12387085, 0
86, 1808678942, 0.9347532, 0.051526163, -0.297325, 0.18756166, -0.0062125428, 0.004503451, 0.10907078, 0
87, 1808695609, 0.9349426, 0.05120374, -0.2973833, 0.1866116, 0.022559386, 0.019359965, 0.13503647, 0
88, 1808712276, 0.9348976, 0.051285643, -0.2973499, 0.18686722, 0.023511104, 0.022740208, 0.12540245, 0
89, 1808728943, 0.93504626, 0.051039156, -0.29735583, 0.18618026, 0.005631856, 0.0043251435, 0.13146305, 0
90, 1808745610, 0.93506235, 0.051026005, -0.29733047, 0.18614356, -9.877038E-4, -0.0016669037, 0.115927696, 0
91, 1808762277, 0.9351181, 0.05094712, -0.29732588, 0.185892, -0.0039662374, 0.011624853, 0.119605064, 0
92, 1808778944, 0.935092, 0.05098966, -0.29731986, 0.1860216, -0.008871676, 0.023269432, 0.10980892, 0
93, 1808795611, 0.9350777, 0.051005688, -0.2973179, 0.18609191, 0.001571743, 0.016048286, 0.12771034, 0
94, 1808812278, 0.93505156, 0.051038627, -0.2972861, 0.18626523, 0.038471945, 0.02600847, 0.13711357, 0
95, 1808828945, 0.93500805, 0.051099025, -0.2972396, 0.1865411, 0.0100312615, 0.017463068, 0.11723518, 0
96, 1808845612, 0.93508136, 0.050974805, -0.29723853, 0.18620828, 0.0011325402, -0.009861001, 0.108864784, 0
97, 1808862279, 0.93510926, 0.05093171, -0.29723772, 0.1860817, -0.023809941, 0.002392762, 0.100001335, 0
98, 1808878946, 0.93509895, 0.050959032, -0.29722553, 0.18614545, 0.0167105, 0.0142511865, 0.12697506, 0
99, 1808895613, 0.9349444, 0.051219378, -0.29715884, 0.18695481, 0.038586605, 0.015834551, 0.12687397, 0
100, 1808912280, 0.93498147, 0.051166594, -0.29710898, 0.18686369, 0.02289555, 0.0030050199, 0.10702038, 0
101, 1808928947, 0.9348672, 0.051372945, -0.29697084, 0.18759681, 0.0015880596, 0.0085555175, 0.114136696, 0
102, 1808945614, 0.9349377, 0.05127027, -0.29688156, 0.18741457, 0.01774693, 0.0104029635, 0.11580086, 0
103, 1808962281, 0.93498343, 0.051218923, -0.2967811, 0.18735954, -0.022313746, 0.0013764487, 0.116482735, 0
104, 1808978948, 0.9349541, 0.051283, -0.2967281, 0.18757242, -0.05179801, -0.02515887, 0.115989685, 0
105, 1808995615, 0.93497044, 0.051266048, -0.2967794, 0.18741468, -0.0025665993, 0.0031970735, 0.13030338, 0
106, 1809012282, 0.93499935, 0.051195417, -0.29689342, 0.18710847, -9.1975584E-4, -0.014754817, 0.12387276, 0
107, 1809028949, 0.93498343, 0.05121948, -0.2969568, 0.18708067, 0.0553208, 0.042160466, 0.13929558, 0
108, 1809045616, 0.9349966, 0.051199827, -0.2969966, 0.18695717, 0.034273475, 0.030522315, 0.14006042, 0
109, 1809062283, 0.9350316, 0.051158022, -0.29697028, 0.18683535, 0.013974253, 0.018181829, 0.11186218, 0
110, 1809078950, 0.9350867, 0.051089197, -0.29692394, 0.18665189, 0.014283596, 0.0019727813, 0.1253624, 0
111, 1809095617, 0.9350267, 0.051206585, -0.296878, 0.18699302, -0.009103906, -0.004474841, 0.10227203, 0
112, 1809112284, 0.9350082, 0.051226687, -0.29687434, 0.1870858, -0.01937969, 0.013468723, 0.114001274, 0
113, 1809128951, 0.9350158, 0.051208068, -0.29690564, 0.1870029, -0.0010303947, -0.011801987, 0.11267376, 0
114, 1809145618, 0.93500996, 0.051206592, -0.29694358, 0.18697284, -0.0032190336, 0.002282123, 0.118112564, 0
115, 1809162285, 0.9349867, 0.051248223, -0.29696527, 0.18704335, 0.008922637, 0.02641845, 0.111587524, 0
116, 1809178952, 0.93501097, 0.05119914, -0.29695067, 0.18695867, 0.03943305, 0.03202231, 0.13140583, 0
117, 1809195619, 0.93504983, 0.051116195, -0.2969216, 0.18683323, 0.040868226, 0.017753132, 0.13070011, 0
118, 1809212286, 0.9350373, 0.051127642, -0.29683584, 0.18702923, 0.008150623, 0.024937453, 0.101389885, 0
119, 1809228953, 0.93504435, 0.051107895, -0.29676777, 0.1871076, -0.016569685, 0.0043357043, 0.11586285, 0
120, 1809245620, 0.93493617, 0.051280644, -0.29666126, 0.1877682, -0.011494601, 0.0040079225, 0.113199234, 0
121, 1809262287, 0.9349085, 0.05131931, -0.29659194, 0.18800466, -0.012393346, 0.0045334576, 0.11590576, 0
122, 1809278954, 0.9349554, 0.051261816, -0.29657418, 0.18781507, -0.012704477, 0.001186351, 0.13471222, 0
123, 1809295621, 0.9348706, 0.05139627, -0.29653683, 0.18825886, 0.0068812934, 0.024047423, 0.107245445, 0
124, 1809312288, 0.9349902, 0.051195674, -0.2965325, 0.18772577, 0.026251597, 0.013638426, 0.13280582, 0
125, 1809328955, 0.9350974, 0.051018085, -0.2965168, 0.18726434, 0.024301223, 0.03568144, 0.116957664, 0
126, 1809345622, 0.935147, 0.0509296, -0.29644758, 0.18715024, 0.0145278955, 0.007006405, 0.118029594, 0
127, 1809362289, 0.9351284, 0.050962046, -0.29641175, 0.18729131, -0.029288914, 0.008822392, 0.12158203, 0
128, 1809378956, 0.935133, 0.050968878, -0.2964393, 0.18722276, -0.043581672, -0.020373011, 0.118159294, 0
129, 1809395623, 0.9351141, 0.050978385, -0.29648092, 0.18724862, 6.9221965E-4, 0.030810926, 0.13650036, 0
130, 1809412290, 0.9351244, 0.05096111, -0.29651305, 0.18715088, 0.029460348, 0.02262901, 0.129282, 0
131, 1809428957, 0.935126, 0.050950244, -0.29651323, 0.18714559, 0.022869399, 0.02581379, 0.1218214, 0
132, 1809445624, 0.93514466, 0.050911244, -0.2965048, 0.18707636, 0.008499304, 0.0014205365, 0.1046381, 0
133, 1809462291, 0.9351414, 0.05091788, -0.29648182, 0.18712747, 0.01791121, -6.945665E-4, 0.11049366, 0
134, 1809478958, 0.9351717, 0.05086928, -0.2964719, 0.18700475, 0.01134373, 0.0165375, 0.1305008, 0
135, 1809495625, 0.93515337, 0.050904, -0.29643896, 0.1871395, 0.005683711, 0.028702863, 0.11403465, 0
136, 1809512292, 0.9351689, 0.050892644, -0.29639813, 0.18712886, -0.002443667, 0.012857694, 0.116075516, 0
137, 1809528959, 0.93507624, 0.051065937, -0.29631436, 0.18767674, -0.010264162, 0.007951306, 0.12274265, 0
138, 1809545626, 0.93507415, 0.051082287, -0.29626614, 0.1877587, 0.0112344315, 0.01581058, 0.11897659, 0
139, 1809562293, 0.93503547, 0.05116337, -0.2961759, 0.18807116, 0.021036593, 0.020156845, 0.12234402, 0
140, 1809578960, 0.9350794, 0.05108103, -0.2961111, 0.18797725, 0.011869656, 0.03858096, 0.12819958, 0
141, 1809595627, 0.93501365, 0.05117123, -0.29600513, 0.1884462, 0.017653948, -0.0074645784, 0.10491943, 0
142, 1809612294, 0.93520457, 0.050869524, -0.29598662, 0.1876079, 0.001483232, 0.005784236, 0.11716938, 0
143, 1809628961, 0.9352652, 0.050755627, -0.29596406, 0.18737225, -0.0027349044, 1.360635E-4, 0.121899605, 0
144, 1809645628, 0.93529475, 0.050700184, -0.29592967, 0.18729356, -0.0022136723, 0.0034147191, 0.11312866, 0
145, 1809662295, 0.93529636, 0.050710082, -0.29586735, 0.18738128, 0.020047547, 0.013819974, 0.120648384, 0
146, 1809678962, 0.9353066, 0.05071767, -0.29578575, 0.18745704, -0.010561211, 0.009290037, 0.11645985, 0
147, 1809695629, 0.93528694, 0.050772835, -0.29569194, 0.18768801, 0.0012219453, 0.0144595, 0.12534904, 0
148, 1809712296, 0.93528795, 0.050757077, -0.29572675, 0.18763268, -0.06952885, -0.02228793, 0.11099911, 0
149, 1809728963, 0.9352482, 0.05080009, -0.29575655, 0.18777215, -0.020751167, 0.008489357, 0.11184597, 0
150, 1809745630, 0.9351681, 0.050922588, -0.29584643, 0.18799615, 0.002140807, 0.005089055, 0.11987877, 0
151, 1809762297, 0.9351654, 0.050937377, -0.29590616, 0.18791154, 0.04697527, 0.028507344, 0.11882019, 0
152, 1809778964, 0.9351892, 0.05090553, -0.29592606, 0.18777029, 0.030031424, 0.043955944, 0.12838268, 0
153, 1809795631, 0.935212, 0.050879706, -0.29591057, 0.18768805, 0.015783815, 0.031844784, 0.12012291, 0
154, 1809812298, 0.9351826, 0.050945938, -0.29589078, 0.18784752, 0.0065198727, 0.013124513, 0.12596416, 0
155, 1809828965, 0.9352119, 0.05091871, -0.2959029, 0.18768992, -0.004086264, -0.010733679, 0.11335373, 0
156, 1809845632, 0.93518645, 0.050959717, -0.29593632, 0.18775287, -0.00817901, 0.0100321, 0.11439228, 0
157, 1809862299, 0.9351564, 0.05102002, -0.29597223, 0.18782948, 0.0010590043, -0.0069468105, 0.11388779, 0
158, 1809878966, 0.93509746, 0.051103614, -0.29597566, 0.18809499, 0.041415833, 0.025814405, 0.13132477, 0
159, 1809895633, 0.93511945, 0.05105778, -0.29593024, 0.18806943, 0.04440219, 0.027033892, 0.12901878, 0
160, 1809912300, 0.93517625, 0.05098371, -0.29582337, 0.18797524, 0.056701213, 0.0376773, 0.12155914, 0
161, 1809928967, 0.9352823, 0.0508113, -0.29570475, 0.18768068, 0.0051043653, 0.018733962, 0.11794758, 0
162, 1809945634, 0.9352707, 0.050827604, -0.29559427, 0.18790776, -0.028962586, 0.0022033348, 0.12711716, 0
163, 1809962301, 0.9352633, 0.05083525, -0.29557145, 0.18797866, -0.046355918, -0.021079423, 0.109882355, 0
164, 1809978968, 0.9352223, 0.05091112, -0.29561776, 0.18808895, -0.05650117, -0.019989435, 0.11454773, 0
165, 1809995635, 0.9351527, 0.051036585, -0.2957467, 0.18819834, -0.054424733, -0.015134677, 0.12796974, 0
166, 1810012302, 0.93501997, 0.051265236, -0.29590952, 0.18854018, -0.018143442, -0.020899411, 0.115517616, 0
167, 1810028969, 0.9349611, 0.05139833, -0.296121, 0.18846363, 0.0049859034, -0.00669561, 0.12902737, 0
168, 1810045636, 0.9348731, 0.051580116, -0.29634446, 0.18849908, 0.018521847, 0.0041253786, 0.11807728, 0
169, 1810062303, 0.93486893, 0.051598873, -0.2965552, 0.1881833, 0.055086333, 0.030848196, 0.13885593, 0
170, 1810078970, 0.9348182, 0.05168602, -0.29669908, 0.18818408, 0.062851846, 0.04019959, 0.11757374, 0
171, 1810095637, 0.934787, 0.051752355, -0.29676795, 0.18821283, 0.044000313, 0.02621304, 0.117762566, 0
172, 1810112304, 0.93465734, 0.051964205, -0.29680014, 0.18874647, -0.005891131, 0.012107976, 0.11997986, 0
173, 1810128971, 0.93463534, 0.05201223, -0.29687643, 0.18872221, -0.038907792, -0.015912613, 0.114990234, 0
174, 1810145638, 0.93456256, 0.05214615, -0.29699862, 0.18885313, -0.012929778, -0.0089369975, 0.11346817, 0
175, 1810162305, 0.93453175, 0.052193526, -0.29714996, 0.18875475, 0.03546972, 0.021336714, 0.13478279, 0
176, 1810178972, 0.9344733, 0.05229868, -0.29724213, 0.18886985, 0.04944196, 0.02635296, 0.11310291, 0
177, 1810195639, 0.9344408, 0.052351426, -0.29727376, 0.18896589, 0.05131634, 0.01660204, 0.11942005, 0
178, 1810212306, 0.9344257, 0.052366126, -0.29728243, 0.18902269, 0.022593137, 0.024317315, 0.116080284, 0
179, 1810228973, 0.934467, 0.052293804, -0.29726988, 0.18885824, 0.013284492, 0.018517043, 0.096144676, 0
180, 1810245640, 0.9344828, 0.052268628, -0.2972317, 0.18884698, 0.007754782, 0.015168651, 0.13751411, 0
181, 1810262307, 0.93450135, 0.052217197, -0.29720038, 0.18881884, 0.021852192, 0.011137874, 0.11263752, 0
182, 1810278974, 0.9345288, 0.052193902, -0.29715347, 0.18876296, 0.014059636, 0.026792051, 0.13916683, 0
183, 1810295641, 0.9346004, 0.05206984, -0.29710642, 0.18851681, 0.026868492, 0.016266715, 0.12151623, 0
184, 1810312308, 0.93465585, 0.05196358, -0.29702264, 0.18840332, 0.033195473, 0.024430748, 0.124183655, 0
185, 1810328975, 0.93470734, 0.05187055, -0.29693767, 0.18830745, 0.0014843495, -0.0035139031, 0.11627102, 0
186, 1810345642, 0.9346659, 0.051937148, -0.29683712, 0.18865258, -0.009964431, -0.0066371053, 0.12389088, 0
187, 1810362309, 0.93471944, 0.051846463, -0.29678538, 0.18849406, 0.0080160685, 0.0016907637, 0.12617874, 0
188, 1810378976, 0.9347633, 0.051772583, -0.29671094, 0.1884138, 0.014205365, 0.022622697, 0.112626076, 0
189, 1810395643, 0.9348328, 0.051670283, -0.29661173, 0.18825337, 0.012072605, 0.017481228, 0.11742306, 0
190, 1810412310, 0.9348698, 0.051631697, -0.29647774, 0.18829125, 0.0055297106, 0.016211282, 0.12427044, 0
191, 1810428977, 0.9348699, 0.05163762, -0.29633817, 0.18850929, 0.007448793, -0.0024779765, 0.11182785, 0
192, 1810445644, 0.93494517, 0.051507734, -0.29623473, 0.1883339, -0.0114105595, 0.0057108677, 0.11000824, 0
193, 1810462311, 0.93504477, 0.05133482, -0.2961718, 0.18798497, -0.019841691, 0.002701601, 0.098015785, 0
194, 1810478978, 0.9350708, 0.05128634, -0.29610434, 0.18797524, -0.00754468, 0.0041652755, 0.11358929, 0
195, 1810495645, 0.93507415, 0.05128153, -0.29604933, 0.18804668, 0.0056399023, 0.023740374, 0.13937092, 0
196, 1810512312, 0.9350711, 0.05129015, -0.29602066, 0.18810426, -0.0068611773, 0.012710176, 0.12709522, 0
197, 1810528979, 0.9350991, 0.051264126, -0.2960031, 0.18799959, -0.004428909, -0.0022855876, 0.12299538, 0
198, 1810545646, 0.9351178, 0.051248115, -0.29599607, 0.18792216, 0.011163131, 0.017640145, 0.12797832, 0
199, 1810562313, 0.9352418, 0.051067427, -0.29599154, 0.18736055, 0.0096845925, 0.02517946, 0.1131649, 0
200, 1810578980, 0.93529254, 0.05097279, -0.29594126, 0.18721256, 0.017046439, 0.0065848595, 0.11649704, 0
201, 1810595647, 0.93532467, 0.050916847, -0.29589248, 0.18714443, -0.010665814, -0.007641712, 0.11634159, 0
202, 1810612314, 0.93535346, 0.050864194, -0.29586232, 0.1870628, -0.009311549, -0.004879232, 0.11769676, 0
203, 1810628981, 0.9353164, 0.05092197, -0.2958468, 0.18725638, -0.01430997, 0.002184895, 0.12264061, 0
204, 1810645648, 0.93531525, 0.05091331, -0.29584724, 0.18726401, 0.011482308, 0.027942361, 0.1285305, 0
205, 1810662315, 0.93528605, 0.05092804, -0.29582486, 0.18744086, 0.010850883, 0.037694454, 0.14079285, 0
206, 1810678982, 0.93531555, 0.050860252, -0.29579595, 0.1873575, 0.00790543, 0.014627246, 0.11206341, 0
207, 1810695649, 0.93533677, 0.050802268, -0.29575738, 0.18732826, -0.0046191188, -0.006695666, 0.11453915, 0
208, 1810712316, 0.93530554, 0.05086501, -0.29571673, 0.18753122, -0.010454819, -0.006065471, 0.10857296, 0
209, 1810728983, 0.9352912, 0.0508873, -0.29574212, 0.18755701, -0.027021822, -0.0058616833, 0.11832905, 0
210, 1810745650, 0.93523204, 0.05098334, -0.29578003, 0.1877657, -0.02615057, 0.007756626, 0.12162018, 0
211, 1810762317, 0.93517375, 0.051060874, -0.2958776, 0.18788122, -0.012495939, 0.0018873992, 0.114468575, 0
212, 1810778984, 0.93512493, 0.051150445, -0.29593846, 0.18800361, 0.026925934, 0.013923796, 0.11209297, 0
213, 1810795651, 0.9351459, 0.05112913, -0.29596287, 0.187867, 0.03861365, 0.033178933, 0.143116, 0
214, 1810812318, 0.9350978, 0.05121201, -0.29593453, 0.18812801, 0.025970642, 0.029860884, 0.11875057, 0
215, 1810828985, 0.93513095, 0.051152907, -0.29587913, 0.18806635, 0.013385073, 0.0021047657, 0.13151836, 0
216, 1810845652, 0.93513554, 0.051149532, -0.2958483, 0.18809296, -0.018385282, 0.005552956, 0.123864174, 0
217, 1810862319, 0.9351679, 0.051101975, -0.2958707, 0.18790993, -0.014320475, -0.0073332367, 0.113503456, 0
218, 1810878986, 0.93516374, 0.051123694, -0.29589552, 0.1878854, -0.011840822, -0.01718714, 0.1187067, 0
219, 1810895653, 0.9350125, 0.051383764, -0.2958818, 0.18858752, 0.028872734, 0.005637835, 0.12954903, 0
220, 1810912320, 0.93499607, 0.051433872, -0.29585576, 0.1886963, 0.027266793, 0.026086811, 0.13043118, 0
221, 1810928987, 0.9350549, 0.051367484, -0.29580358, 0.18850487, 0.028494773, 0.019125165, 0.11769962, 0
222, 1810945654, 0.93511856, 0.051261652, -0.29576752, 0.18827438, 7.261936E-4, 0.0030983365, 0.11699581, 0
223, 1810962321, 0.93512195, 0.05124319, -0.2957378, 0.18830955, 0.0042489814, 0.01124164, 0.12756348, 0
224, 1810978988, 0.9351892, 0.051125254, -0.29573995, 0.18800388, -0.002776031, -9.294786E-4, 0.119522095, 0
225, 1810995655, 0.935228, 0.051060013, -0.29573303, 0.18783925, 0.0067031537, -0.0012755884, 0.11737347, 0
226, 1811012322, 0.935208, 0.05109053, -0.29570648, 0.18797182, -0.009292328, 5.325196E-4, 0.108356476, 0
227, 1811028989, 0.93517697, 0.051163986, -0.29566967, 0.18816434, -0.0047009243, 0.0042630625, 0.114702225, 0
228, 1811045656, 0.935143, 0.05120129, -0.29564613, 0.18835942, 0.0049496945, 0.009989632, 0.120848656, 0
229, 1811062323, 0.93512225, 0.051235225, -0.29564282, 0.18845865, -0.0074943895, 0.002255581, 0.12770939, 0
230, 1811078990, 0.93509287, 0.051275272, -0.2956602, 0.18856606, -0.007569266, 0.005677788, 0.12424469, 0
231, 1811095657, 0.9350946, 0.05128031, -0.2956911, 0.18850811, 0.023739312, -7.294904E-4, 0.13033295, 0
232, 1811112324, 0.9351051, 0.05127334, -0.29569662, 0.18844937, 0.021316655, 0.015585447, 0.11411476, 0
233, 1811128991, 0.9350623, 0.05134646, -0.29563108, 0.18874396, 0.018092927, 0.028303614, 0.13839722, 0
234, 1811145658, 0.93509835, 0.051293205, -0.2955413, 0.18872038, 0.015645012, 0.007681973, 0.13345814, 0
235, 1811162325, 0.93516, 0.051184226, -0.2954524, 0.18858416, -0.017957479, 0.0076329676, 0.122335434, 0
236, 1811178992, 0.9351879, 0.051118363, -0.29540503, 0.18853766, -0.026760982, 0.010597476, 0.10711002, 0
237, 1811195659, 0.93519694, 0.05109218, -0.2954063, 0.18849747, -0.027325353, -0.0022690475, 0.122065544, 0
238, 1811212326, 0.93514526, 0.05116738, -0.29539895, 0.18874536, 1.2986103E-4, 0.0062566865, 0.13133049, 0
239, 1811228993, 0.9351544, 0.05114758, -0.29542303, 0.18866776, -0.006282279, -0.0013442627, 0.1243248, 0
240, 1811245660, 0.9351584, 0.051141314, -0.29545513, 0.18859918, 0.017836781, -0.00576032, 0.123355865, 0
241, 1811262327, 0.9351532, 0.05116455, -0.29549757, 0.18855199, 0.01584528, -0.0075707748, 0.14431953, 0
242, 1811278994, 0.93514097, 0.051221464, -0.29551736, 0.18856679, 0.04716481, 0.009866755, 0.13243484, 0
243, 1811295661, 0.9351545, 0.05122492, -0.2954696, 0.18857315, 0.046070267, 0.043225337, 0.11980438, 0
244, 1811312328, 0.93520075, 0.05115052, -0.29538146, 0.1885018, 0.016843935, 0.035983462, 0.114320755, 0
245, 1811328995, 0.9351842, 0.051162615, -0.29527628, 0.18874581, -0.026947169, 0.015601596, 0.10042858, 0
246, 1811345662, 0.9352678, 0.051016714, -0.29525006, 0.18841164, -0.056887623, -0.010114911, 0.111676216, 0
247, 1811362329, 0.9352618, 0.05103386, -0.2952714, 0.18840358, -0.037693895, -0.01726252, 0.12460899, 0
248, 1811378996, 0.9354014, 0.05082934, -0.29537243, 0.18760541, -0.020269943, -0.004029659, 0.1039629, 0
249, 1811395663, 0.9353805, 0.0508821, -0.2954178, 0.18762392, 0.019028328, 0.017263861, 0.12538147, 0
250, 1811412330, 0.9353778, 0.050907, -0.2954265, 0.18761726, 0.044365533, 0.021872811, 0.13229847, 0
251, 1811428997, 0.93539965, 0.050886035, -0.29540485, 0.18754709, 0.038340297, 0.027047638, 0.13504696, 0
252, 1811445664, 0.93539166, 0.050904628, -0.29536432, 0.18764587, -7.9436507E-4, 0.030307798, 0.12858582, 0
253, 1811462331, 0.9354167, 0.05086265, -0.29530698, 0.18762332, 2.0764353E-4, -0.0023297872, 0.11577034, 0
254, 1811478998, 0.93544143, 0.050812617, -0.29525882, 0.18758929, 9.2064985E-4, 0.008911015, 0.11277199, 0
255, 1811495665, 0.9354823, 0.050768457, -0.29521695, 0.18746328, -0.0038205069, -0.0025626319, 0.11441231, 0
256, 1811512332, 0.93549514, 0.050742146, -0.2951776, 0.18746835, -0.0038757147, 0.001439144, 0.10842514, 0
257, 1811528999, 0.9355327, 0.050677653, -0.29512903, 0.1873746, 0.017441163, 0.0141793825, 0.11251831, 0
258, 1811545666, 0.9354708, 0.05076836, -0.29504794, 0.18778624, 0.014709611, 0.0065539028, 0.11643791, 0
259, 1811562333, 0.93546253, 0.050812338, -0.29496023, 0.18795319, -0.0025136266, -0.007374838, 0.11933422, 0
260, 1811579000, 0.9354617, 0.050843157, -0.294895, 0.18805143, 0.011349318, 0.010401455, 0.12054634, 0
261, 1811595667, 0.93548685, 0.050822318, -0.29482073, 0.18804865, 0.013628032, 0.02405899, 0.13842869, 0
262, 1811612334, 0.9354701, 0.050849285, -0.29469198, 0.1883259, 0.007160014, 0.0323131, 0.1186924, 0
263, 1811629001, 0.9354114, 0.050936274, -0.29453686, 0.18883623, -9.566355E-5, 0.021593532, 0.1281681, 0
264, 1811645668, 0.93545926, 0.050850824, -0.29443508, 0.18878117, -0.029004829, 0.0060083633, 0.104901314, 0
265, 1811662335, 0.93549323, 0.05078589, -0.29438832, 0.18870306, -0.039854147, -0.003639182, 0.11598492, 0
266, 1811679002, 0.9355357, 0.05073687, -0.29442072, 0.18845509, -0.04567107, -0.012440032, 0.10837078, 0
267, 1811695669, 0.9354782, 0.05085149, -0.29443133, 0.1886925, 0.009557637, -0.00928185, 0.13186646, 0
268, 1811712336, 0.9354859, 0.050873943, -0.29445708, 0.18860774, 0.03153209, 0.00574026, 0.13938904, 0
269, 1811729003, 0.9354864, 0.050894424, -0.29445282, 0.18860674, 0.007382186, 0.011566181, 0.1316204, 0
270, 1811745670, 0.93543255, 0.051001973, -0.29440495, 0.18891974, 0.0171649, 0.020926513, 0.13809109, 0
271, 1811762337, 0.9354455, 0.05100308, -0.29437208, 0.18890592, -0.010899609, 0.016495312, 0.10963631, 0
272, 1811779004, 0.9354687, 0.05097398, -0.29432893, 0.18886589, -0.005269765, 0.020050509, 0.12714195, 0
273, 1811795671, 0.9354739, 0.05095611, -0.29429725, 0.1888946, -0.0060230037, 0.012192129, 0.12527847, 0
274, 1811812338, 0.9354928, 0.0509127, -0.2942936, 0.18881825, -0.024605647, -0.0044512046, 0.12755013, 0
275, 1811829005, 0.9354668, 0.050965298, -0.29430172, 0.18892078, -0.02461794, -0.009417104, 0.13938999, 0
276, 1811845672, 0.93535864, 0.051140793, -0.29431495, 0.18938771, -0.0075690425, -0.009415008, 0.1239872, 0
277, 1811862339, 0.9353414, 0.051192045, -0.2943464, 0.18940972, 0.038932156, 0.0056077167, 0.13252354, 0
278, 1811879006, 0.93543065, 0.051072877, -0.29438502, 0.18894055, 0.040729202, 0.014824944, 0.12304783, 0
279, 1811895673, 0.9354745, 0.051010974, -0.29435018, 0.18879455, 0.03125605, 0.026684709, 0.12919903, 0
280, 1811912340, 0.9355106, 0.050942205, -0.29428878, 0.18873033, 0.01568167, 0.015965195, 0.12652302, 0
281, 1811929007, 0.9355147, 0.050949134, -0.29420146, 0.18884416, -0.016094051, 0.0062060608, 0.12365246, 0
282, 1811945674, 0.9355287, 0.050933283, -0.29419032, 0.18879665, -0.05857604, -0.007609331, 0.11192608, 0
283, 1811962341, 0.93552184, 0.05096121, -0.2942139, 0.18878607, -0.038433723, -0.014739366, 0.109591484, 0
284, 1811979008, 0.93549585, 0.05099149, -0.29428932, 0.18878925, -0.01205696, -0.018046856, 0.11719227, 0
285, 1811995675, 0.9354583, 0.051058803, -0.29437143, 0.18882895, 0.010951688, -0.0072645904, 0.12515545, 0
286, 1812012342, 0.93545455, 0.051082946, -0.2944614, 0.18870069, 0.023498587, -0.008914367, 0.14166546, 0
287, 1812029009, 0.93543285, 0.051150195, -0.2945133, 0.18870899, 0.008015621, 0.0021286255, 0.12685776, 0
288, 1812045676, 0.9354242, 0.05118229, -0.29454008, 0.18870158, 0.022578385, 0.022863364, 0.13442516, 0
289, 1812062343, 0.93542963, 0.051191833, -0.29454345, 0.18866634, 0.015564324, 0.014751073, 0.12935257, 0
290, 1812079010, 0.9354246, 0.05123304, -0.294536, 0.18869145, -0.008650399, 0.009746171, 0.115324974, 0
291, 1812095677, 0.93545365, 0.05117787, -0.2945596, 0.18852578, -0.01601649, 0.015295383, 0.12047768, 0
292, 1812112344, 0.9354323, 0.051197488, -0.29460528, 0.18855558, -0.017236425, 0.0072213123, 0.12465668, 0
293, 1812129011, 0.9354241, 0.051188074, -0.29463932, 0.18854569, 0.014794546, 0.012944865, 0.11958504, 0
294, 1812145678, 0.935402, 0.051204264, -0.29464847, 0.18863639, 0.034380987, 0.009402072, 0.13545227, 0
295, 1812162345, 0.9354037, 0.051200934, -0.29464874, 0.18862808, 0.013302374, 2.8615247E-4, 0.12403488, 0
296, 1812179012, 0.9354169, 0.051174536, -0.2946211, 0.18861338, 0.010918384, 0.0018386735, 0.107069016, 0
297, 1812195679, 0.93544585, 0.051119916, -0.29460782, 0.18850502, 0.002658463, 0.0025374866, 0.12553215, 0
298, 1812212346, 0.93544453, 0.05112236, -0.29458392, 0.18854837, -0.0059762895, 0.008774895, 0.12167168, 0
299, 1812229013, 0.935425, 0.051172502, -0.29455644, 0.18867399, -0.021456573, 0.0111315595, 0.11445713, 0
300, 1812245680, 0.9354248, 0.051187225, -0.29455346, 0.18867561, -0.014014263, 0.005216401, 0.12760544, 0
301, 1812262347, 0.9354124, 0.051229555, -0.29456714, 0.18870494, -0.020824255, 0.010711243, 0.11118603, 0
302, 1812279014, 0.9353895, 0.051291887, -0.29458144, 0.18877913, -0.0034693682, 0.018373324, 0.105986595, 0
303, 1812295681, 0.9353364, 0.051386263, -0.294595, 0.1889949, 0.038133323, -0.0029381337, 0.12372494, 0
304, 1812312348, 0.9353479, 0.051385634, -0.29456297, 0.18898813, 0.027717171, 0.012806398, 0.12685394, 0
305, 1812329015, 0.9353492, 0.0514025, -0.29450968, 0.18906043, 0.03144492, 0.017331082, 0.13710976, 0
306, 1812345682, 0.9353755, 0.051388703, -0.29443455, 0.1890507, -0.009456833, 0.0069316397, 0.11389351, 0
307, 1812362349, 0.93540007, 0.051355872, -0.29438198, 0.18902001, 0.0054336, 0.027204376, 0.101472855, 0
308, 1812379016, 0.9354126, 0.051338855, -0.29434878, 0.18901426, -0.0059637725, 0.0022183103, 0.09509659, 0
309, 1812395683, 0.9354746, 0.05124185, -0.2943664, 0.18870667, -0.010588926, -0.0021895887, 0.116568565, 0
310, 1812412350, 0.93549895, 0.051200114, -0.29439375, 0.18855438, -0.030605406, -0.013519684, 0.12507915, 0
311, 1812429017, 0.93547535, 0.051241107, -0.29443634, 0.18859388, 0.00870717, 9.4875664E-4, 0.12703133, 0
312, 1812445684, 0.93544155, 0.051301513, -0.29447263, 0.18868798, 0.021506192, 0.009055572, 0.11231899, 0
313, 1812462351, 0.93541586, 0.051367983, -0.29445907, 0.1888182, 0.012760578, 0.021340737, 0.1287651, 0
314, 1812479018, 0.9354091, 0.05139168, -0.29444426, 0.18886836, 0.008503551, 0.011680396, 0.12130737, 0
315, 1812495685, 0.93539155, 0.051431477, -0.29442325, 0.18897723, -0.00974293, 0.01854392, 0.13436317, 0
316, 1812512352, 0.93539447, 0.051421862, -0.29441908, 0.18897176, -0.008113967, 0.004754344, 0.116173744, 0
317, 1812529019, 0.93540686, 0.051407635, -0.29441914, 0.18891433, -0.012282261, -0.0067679165, 0.11079025, 0
318, 1812545686, 0.9354532, 0.051335447, -0.29443476, 0.18867995, -7.650849E-4, -0.0055385395, 0.13191032, 0
319, 1812562353, 0.93544906, 0.0513435, -0.29444355, 0.18868528, -0.0068544718, 0.0072056665, 0.12625885, 0
320, 1812579020, 0.93543965, 0.051366426, -0.29444396, 0.18872455, 0.008792106, 0.0072570187, 0.11258602, 0
321, 1812595687, 0.9354, 0.05144319, -0.29444048, 0.18890561, 0.0034843434, 2.7357985E-4, 0.12093258, 0
322, 1812612354, 0.9353161, 0.05159112, -0.29440963, 0.18932855, 9.298139E-5, 0.0012015498, 0.1026001, 0
323, 1812629021, 0.9352703, 0.051676374, -0.29437432, 0.18958607, 0.011219233, 0.027399112, 0.1437769, 0
324, 1812645688, 0.9352915, 0.05167046, -0.2943508, 0.1895195, 0.0094458815, 5.645378E-4, 0.1312666, 0
325, 1812662355, 0.9352806, 0.05170286, -0.29432437, 0.18960519, -0.00893493, 0.00536297, 0.12057209, 0
326, 1812679022, 0.93526185, 0.05173676, -0.29430634, 0.1897164, -0.0022241774, 0.006598214, 0.11571407, 0
327, 1812695689, 0.93525696, 0.051772382, -0.2942758, 0.18977867, -0.0091501735, -5.050834E-4, 0.11165619, 0
328, 1812712356, 0.9352734, 0.05177492, -0.2942559, 0.18972799, -0.008868547, 0.00541611, 0.121230125, 0
329, 1812729023, 0.9352609, 0.05181088, -0.2942605, 0.18977234, 1.658466E-4, -0.003011893, 0.10592079, 0
330, 1812745690, 0.93519765, 0.05193931, -0.2942628, 0.19004536, -0.0033301194, -0.00324362, 0.10151863, 0
331, 1812762357, 0.9351854, 0.05198372, -0.29429245, 0.19004786, 0.013880825, -0.004455116, 0.12386322, 0
332, 1812779024, 0.93515605, 0.052061085, -0.29432178, 0.19012505, 0.010803275, 0.014578074, 0.11880493, 0
333, 1812795691, 0.93509936, 0.052184414, -0.29431733, 0.19037671, 0.031774603, 0.014096683, 0.14114189, 0
334, 1812812358, 0.9350926, 0.052232113, -0.29431972, 0.1903931, 0.021020276, 0.016378079, 0.12938309, 0
335, 1812829025, 0.9351233, 0.05221423, -0.2943105, 0.19026184, 0.011666929, 0.008563619, 0.112698555, 0
336, 1812845692, 0.93515664, 0.052165035, -0.2942688, 0.19017597, 0.034863774, 0.017959211, 0.12316322, 0
337, 1812862359, 0.93516713, 0.052142087, -0.29421613, 0.1902123, -0.0066345353, -0.012242923, 0.10080242, 0
338, 1812879026, 0.9351825, 0.05210429, -0.2941853, 0.19019465, -0.0065160734, -0.008002602, 0.10973358, 0
339, 1812895693, 0.9351827, 0.052089054, -0.29418725, 0.1901945, -0.0024074581, 0.023571732, 0.1113987, 0
340, 1812912360, 0.93518585, 0.052075125, -0.2941683, 0.19021226, 0.021564754, 0.022879513, 0.119812965, 0
341, 1812929027, 0.93518394, 0.05206742, -0.29409793, 0.19033271, 0.031467047, 0.040448803, 0.14212418, 0
342, 1812945694, 0.9352332, 0.05199182, -0.2939909, 0.19027685, 0.024254732, 0.022202212, 0.13585186, 0
343, 1812962361, 0.93528825, 0.05190035, -0.29386488, 0.19022618, 0.011494378, -0.008025847, 0.10933399, 0
344, 1812979028, 0.93529046, 0.051908936, -0.29372114, 0.19043414, 0.002589621, 0.015382776, 0.12515163, 0
345, 1812995695, 0.93534076, 0.051810004, -0.29361776, 0.19037382, -0.018405398, -0.0010643128, 0.11493206, 0
346, 1813012362, 0.93541783, 0.051687807, -0.29352012, 0.19017875, -0.004061454, 0.008767128, 0.1130352, 0
347, 1813029029, 0.9354718, 0.051615354, -0.29342487, 0.19008012, -0.031020693, -0.0012700006, 0.1308527, 0
348, 1813045696, 0.9354975, 0.051587664, -0.29334286, 0.1900873, -0.008029927, 0.012922625, 0.12504768, 0
349, 1813062363, 0.9355366, 0.051521216, -0.29326794, 0.19002847, -0.004019657, 0.013213863, 0.14371395, 0
350, 1813079030, 0.9355749, 0.05145348, -0.2931831, 0.18998915, 0.007319602, 0.012603225, 0.12398243, 0
351, 1813095697, 0.9356069, 0.051378604, -0.2931102, 0.1899642, 4.912815E-4, -3.3443127E-4, 0.1180563, 0
352, 1813112364, 0.935634, 0.051338743, -0.29305047, 0.18993345, -0.011985212, -0.011591438, 0.11647701, 0
353, 1813129031, 0.935639, 0.051338658, -0.29300967, 0.18997185, -0.024698405, 0.0034598128, 0.09826565, 0
354, 1813145698, 0.93562645, 0.051356636, -0.29302096, 0.19001168, -0.035674457, 0.0041071624, 0.10643005, 0
355, 1813162365, 0.9356047, 0.051372007, -0.29306382, 0.19004853, -0.018925512, -0.0028944928, 0.14276218, 0
356, 1813179032, 0.93557, 0.05142639, -0.2931172, 0.1901223, 0.0057413774, 0.0064961244, 0.13052082, 0
357, 1813195699, 0.93551284, 0.051517732, -0.29316217, 0.19030954, -0.00355028, 0.0051991907, 0.11322212, 0
358, 1813212366, 0.9354854, 0.051565897, -0.29319242, 0.19038454, -0.007662918, 0.007574854, 0.121590614, 0
359, 1813229033, 0.93548197, 0.051585346, -0.29319912, 0.19038594, 0.016689936, 0.00913313, 0.11696243, 0
360, 1813245700, 0.9354729, 0.051591124, -0.29322377, 0.19039108, -0.017368969, 0.009314287, 0.12778187, 0
361, 1813262367, 0.9354627, 0.051583458, -0.29325634, 0.19039321, 0.0038189425, -0.0031063273, 0.12576294, 0
362, 1813279034, 0.9354681, 0.05156286, -0.29328558, 0.19032738, 0.009999299, -0.008115141, 0.12740898, 0
363, 1813295701, 0.93546504, 0.051585816, -0.29329348, 0.19032362, 0.011692633, 0.0047995495, 0.13046074, 0
364, 1813312368, 0.93546283, 0.051601276, -0.2932858, 0.19034219, 0.0052156746, 0.014933348, 0.119050026, 0
365, 1813329035, 0.93547386, 0.051581535, -0.29329282, 0.19028257, -0.014388647, 0.019821968, 0.12453461, 0
366, 1813345702, 0.9354453, 0.051627196, -0.29331812, 0.19037148, -0.023347493, -0.006299992, 0.11329365, 0
367, 1813362369, 0.9354204, 0.051660813, -0.29337132, 0.19040303, 0.001700263, 0.008805628, 0.11489105, 0
368, 1813379036, 0.93538654, 0.051701933, -0.29345703, 0.19042563, 0.0010724152, -0.011895695, 0.12557125, 0
369, 1813395703, 0.93537265, 0.051718347, -0.2935216, 0.19039007, 0.025991203, 0.0015305609, 0.13771248, 0
370, 1813412370, 0.93540627, 0.05165896, -0.29355007, 0.19019741, 0.02903344, 0.02544343, 0.13079643, 0
371, 1813429037, 0.93540674, 0.0516587, -0.29352486, 0.19023392, 0.022515355, 0.012304891, 0.12135029, 0
372, 1813445704, 0.9354194, 0.051627718, -0.2934973, 0.19022211, 0.0017476478, 0.012072717, 0.11389065, 0
373, 1813462371, 0.93542355, 0.051633485, -0.29346868, 0.19024411, -0.011450569, 0.0071877856, 0.12306023, 0
374, 1813479038, 0.93546677, 0.05156437, -0.2934706, 0.19004777, -0.01604309, -0.011198726, 0.12354088, 0
375, 1813495705, 0.9354813, 0.05155859, -0.29346707, 0.18998322, 0.010171404, -0.0021646111, 0.13223553, 0
376, 1813512372, 0.93546605, 0.05158726, -0.29345775, 0.190065, -0.0070542926, 0.0053326837, 0.11153221, 0
377, 1813529039, 0.9354573, 0.051616646, -0.29346916, 0.19008261, -0.036912493, -0.0032887137, 0.12072945, 0
378, 1813545706, 0.93542707, 0.05167664, -0.29349583, 0.1901735, -0.018660203, 0.012060423, 0.13164616, 0
379, 1813562373, 0.9354309, 0.051685065, -0.2935131, 0.190126, 0.029969959, 0.030989569, 0.125741, 0
380, 1813579040, 0.9354213, 0.051695637, -0.29349983, 0.19019054, 0.022041954, 0.014623, 0.12773037, 0
381, 1813595707, 0.9354521, 0.051650908, -0.29346928, 0.19009902, 0.026367152, -0.004887446, 0.123119354, 0
382, 1813612374, 0.9354622, 0.051666524, -0.29339904, 0.19015327, -6.774678E-4, 0.009757458, 0.12314224, 0
383, 1813629041, 0.935486, 0.051629804, -0.29335332, 0.19011658, -0.012455259, -0.0057536704, 0.13660526, 0
384, 1813645708, 0.93549633, 0.05162657, -0.29331166, 0.19013076, 0.0139034, -0.004462548, 0.123770714, 0
385, 1813662375, 0.93547463, 0.051677916, -0.2932635, 0.19029796, 0.008295236, 0.0059124767, 0.13631439, 0
386, 1813679042, 0.9355589, 0.051544387, -0.29320562, 0.19000879, 0.02606854, 0.014099812, 0.13307858, 0
387, 1813695709, 0.935608, 0.051456437, -0.2930748, 0.18999243, 0.02880836, 0.02273814, 0.11563206, 0
388, 1813712376, 0.93565214, 0.051376767, -0.29291615, 0.19004197, -0.00917923, 0.012928157, 0.11467838, 0
389, 1813729043, 0.9356919, 0.051289544, -0.29279774, 0.1900512, -0.014840366, 0.015664067, 0.12484646, 0
390, 1813745710, 0.9357217, 0.051228218, -0.29271042, 0.19005585, -0.02980903, -0.010537574, 0.108356476, 0
391, 1813762377, 0.9357366, 0.05119396, -0.2926626, 0.19006562, -0.015149708, -0.0130202165, 0.12382126, 0
392, 1813779044, 0.9357856, 0.05111038, -0.29266363, 0.1898454, -0.014103444, -0.005191703, 0.119906425, 0
393, 1813795711, 0.9357911, 0.051068265, -0.2926775, 0.18980783, -0.020160869, 0.0018900256, 0.1341238, 0
394, 1813812378, 0.93579084, 0.051027235, -0.292714, 0.18976368, -0.01373353, 0.008238743, 0.12172985, 0
395, 1813829045, 0.93576413, 0.051035028, -0.2927763, 0.1897978, -0.00535537, -0.008028641, 0.14126873, 0
396, 1813845712, 0.9357291, 0.05106182, -0.29285154, 0.18984689, 6.220366E-4, -0.0013369987, 0.123363495, 0
397, 1813862379, 0.9357125, 0.0510626, -0.2929259, 0.18981351, 0.03238546, 0.01458612, 0.130126, 0
398, 1813879046, 0.93570775, 0.05104872, -0.29297438, 0.18976629, 0.021974675, 0.0302579, 0.1527462, 0
399, 1813895713, 0.93566877, 0.051066194, -0.29306608, 0.18981208, -1.7456363E-4, 0.016269173, 0.12736034, 0
400, 1813912380, 0.9356602, 0.051011793, -0.2931424, 0.1897512, -0.011067244, 0.0058477134, 0.13701725, 0
401, 1813929047, 0.935637, 0.05095338, -0.29325703, 0.1897042, 0.03496637, 0.014036781, 0.14634037, 0
402, 1813945714, 0.93561226, 0.050906092, -0.29333216, 0.18972237, -0.0185214, 0.007035685, 0.10182476, 0
403, 1813962381, 0.93559724, 0.050791413, -0.2934531, 0.18964055, -0.020763682, -0.021516139, 0.18823338, 0
404, 1813979048, 0.9355246, 0.05079497, -0.29373926, 0.18955465, 0.015538397, -0.010864993, 0.16001797, 0
405, 1813995715, 0.9355068, 0.050757922, -0.29389474, 0.18941113, 0.04476674, 0.007950636, 0.08809471, 0
406, 1814012382, 0.93550783, 0.050677493, -0.29405624, 0.18917699, 0.015368975, 0.016008388, 0.1768961, 0
407, 1814029049, 0.9354714, 0.05075372, -0.29422468, 0.18907462, 0.011429335, -0.019957304, 0.14442348, 0
408, 1814045716, 0.93545717, 0.050883595, -0.29435635, 0.18890479, 0.017258776, 0.036955856, 0.15834332, 0
409, 1814062383, 0.9354536, 0.05109184, -0.2943978, 0.18880224, -0.0031667314, -8.0520543E-4, 0.07173252, 0
410, 1814079050, 0.9354408, 0.051379614, -0.29443243, 0.1887338, 0.0075002005, 2.0898461E-4, 0.1358881, 0
411, 1814095717, 0.9354072, 0.05165172, -0.29454872, 0.18864375, -0.03067447, -0.028951019, 0.1330328, 0
412, 1814112384, 0.9353686, 0.05208951, -0.2945971, 0.18864018, -0.031499233, -0.041085873, 0.09266472, 0
413, 1814129051, 0.93533784, 0.052766934, -0.29470602, 0.1884332, 0.0135638835, -0.007209187, 0.17524052, 0
414, 1814145718, 0.9352696, 0.05365738, -0.29473835, 0.18846984, 0.0142257055, -0.0026004056, 0.086833, 0
415, 1814162385, 0.9352206, 0.054453045, -0.2946951, 0.18855265, 0.009637655, 0.041860737, 0.07384205, 0
416, 1814179052, 0.93518364, 0.055138346, -0.29451838, 0.18881358, -0.037629522, 0.015580753, 0.076901436, 0
417, 1814195719, 0.93510056, 0.055785418, -0.29446042, 0.18912421, -0.065114245, -0.00367595, 0.15014935, 0
418, 1814212386, 0.9350203, 0.05643134, -0.29454952, 0.18919115, -0.014305723, -0.0013867861, 0.11010456, 0
419, 1814229053, 0.93498033, 0.056964587, -0.29456902, 0.18919814, 0.002210543, 0.0095038265, 0.11554432, 0
420, 1814245720, 0.93491197, 0.057518225, -0.29459846, 0.18932262, 0.017000843, 0.02077916, 0.1264658, 0
421, 1814262387, 0.9349403, 0.057991073, -0.29461545, 0.18901299, -0.02451803, 0.008851001, 0.15390015, 0
422, 1814279054, 0.93491405, 0.058503192, -0.29459321, 0.18901832, -0.00270026, 0.015665408, 0.10526085, 0
423, 1814295721, 0.9348705, 0.058937598, -0.2944928, 0.1892555, 0.061137497, 0.04860239, 0.105381966, 0
424, 1814312388, 0.93487287, 0.059251495, -0.29436177, 0.18934962, 0.021244235, 0.037946634, 0.12394047, 0
425, 1814329055, 0.93493503, 0.05944921, -0.29416496, 0.18928644, -0.035427026, -0.0058279885, 0.08030605, 0
426, 1814345722, 0.9349646, 0.059702784, -0.29395342, 0.18938912, -0.0053256433, 0.012735601, 0.1362009, 0
427, 1814362389, 0.934973, 0.059920765, -0.29385534, 0.18943076, -0.040440198, -0.02501747, 0.13563251, 0
428, 1814379056, 0.9350311, 0.06010209, -0.29372466, 0.1892894, 0.014922842, 0.024531329, 0.11673164, 0
429, 1814395723, 0.9350518, 0.06026736, -0.29359967, 0.18932864, -0.014542423, 0.025888724, 0.0954113, 0
430, 1814412390, 0.9350682, 0.060345612, -0.29348648, 0.18939798, -0.014003534, 0.010982924, 0.1139698, 0
431, 1814429057, 0.93506294, 0.060424365, -0.2935198, 0.18934715, -0.039103813, -0.01556723, 0.12707233, 0
432, 1814445724, 0.93504703, 0.060486812, -0.29362807, 0.18923809, -0.050464086, -3.3135797E-4, 0.11303902, 0
433, 1814462391, 0.9349796, 0.060670536, -0.29380265, 0.18924168, -0.025733046, -0.002337722, 0.08151245, 0
434, 1814479058, 0.9349266, 0.060802512, -0.29388925, 0.18932612, 0.0070015434, 0.017208152, 0.08798027, 0
435, 1814495725, 0.9348733, 0.060938302, -0.29394272, 0.18946296, 0.07681559, 0.06451467, 0.18686295, 0
436, 1814512392, 0.9348328, 0.06113076, -0.2938614, 0.18972693, 0.067096576, 0.039460767, 0.09763527, 0
437, 1814529059, 0.9349028, 0.06124699, -0.2935338, 0.18985175, 0.10956605, 0.044719353, 0.066194534, 0
438, 1814545726, 0.93508726, 0.061222184, -0.29283643, 0.19002873, 0.120220914, 0.07991594, 0.19038773, 0
439, 1814562393, 0.9351608, 0.06121519, -0.29252413, 0.19014913, -0.08720715, -0.0062787584, 0.18052292, 0
440, 1814579060, 0.9351723, 0.061256584, -0.2925651, 0.19001617, -0.23506992, -0.16529611, 0.019016266, 0
441, 1814595727, 0.9351436, 0.06139656, -0.29268506, 0.18992794, -0.02889933, 0.0061868946, 0.12584305, 0
442, 1814612394, 0.93509454, 0.06153402, -0.2927896, 0.18996395, 0.1094543, 0.081433535, 0.17584324, 0
443, 1814629061, 0.9350816, 0.061617486, -0.29276425, 0.19003962, 0.047386087, 0.05978793, 0.11497021, 0
444, 1814645728, 0.93509096, 0.06164213, -0.29262877, 0.19019374, 0.0012789412, 0.017262576, 0.09514713, 0
445, 1814662395, 0.9351116, 0.061606497, -0.29242995, 0.1904094, 0.015503529, 0.027660567, 0.09100437, 0
446, 1814679062, 0.93518025, 0.061397802, -0.29218003, 0.19052294, 0.025228132, 0.045662243, 0.10395241, 0
447, 1814695729, 0.93528396, 0.06093506, -0.29189178, 0.1906041, 0.023399347, 0.036143105, 0.0855875, 0
448, 1814712396, 0.93536997, 0.060448598, -0.29159614, 0.19078971, -0.04268695, -0.035307225, 0.103915215, 0
449, 1814729063, 0.9354308, 0.059992127, -0.2914387, 0.19087604, -0.076725736, -0.016518557, 0.14688683, 0
450, 1814745730, 0.9354101, 0.059614222, -0.29140076, 0.19115426, -0.035095558, 0.048550144, 0.09816551, 0
451, 1814762397, 0.9354598, 0.059118643, -0.29138178, 0.19109309, -0.01683209, -0.00604122, 0.11180115, 0
452, 1814779064, 0.93547964, 0.05878593, -0.29139268, 0.19108273, -0.030966155, -0.04083615, 0.11272526, 0
453, 1814795731, 0.935503, 0.058587298, -0.2914362, 0.19096309, 0.013309973, -0.007199855, 0.12908173, 0
454, 1814812398, 0.9355024, 0.058451846, -0.2915046, 0.1909028, 0.028905142, 0.010873738, 0.14290524, 0
455, 1814829065, 0.9355157, 0.058321353, -0.29153246, 0.19083498, 0.030629098, 0.011076185, 0.11382294, 0
456, 1814845732, 0.9355194, 0.058215693, -0.29152644, 0.19085822, 0.031678267, 0.024025407, 0.13561153, 0
457, 1814862399, 0.9355012, 0.058140013, -0.291535, 0.19095731, -0.0014716093, 0.01801386, 0.11240578, 0
458, 1814879066, 0.9354955, 0.058092732, -0.29152766, 0.19101083, -0.017683897, 0.013915749, 0.11604309, 0
459, 1814895733, 0.9354702, 0.058041736, -0.29152143, 0.19115974, -0.009571272, 0.014055836, 0.1063118, 0
460, 1814912400, 0.93542546, 0.057994213, -0.29153016, 0.19137916, -0.009139221, 0.0025125092, 0.13884354, 0
461, 1814929067, 0.935403, 0.05791505, -0.29157472, 0.19144543, -0.012854677, 0.0015484977, 0.112039566, 0
462, 1814945734, 0.93540037, 0.057825223, -0.2915805, 0.1914767, 0.009056745, -0.015872102, 0.11631489, 0
463, 1814962401, 0.9353842, 0.057760708, -0.2916451, 0.19147648, 0.015319131, 0.0056847166, 0.11488438, 0
464, 1814979068, 0.9353774, 0.05770303, -0.2916538, 0.19151367, 0.043033842, 0.03199968, 0.14354897, 0
465, 1814995735, 0.93538564, 0.057603408, -0.2916721, 0.19147542, 0.037392378, 0.034852263, 0.12379646, 0
466, 1815012402, 0.9354152, 0.057452425, -0.2916174, 0.19146012, 0.0042664153, 0.011545283, 0.11608887, 0
467, 1815029069, 0.9354573, 0.057255205, -0.29155758, 0.19140512, 0.0027679845, 0.035770677, 0.09940815, 0
468, 1815045736, 0.935484, 0.057023704, -0.2914874, 0.19145012, -0.014881046, 0.013615571, 0.10891247, 0
469, 1815062403, 0.9355221, 0.056737877, -0.29145706, 0.19139522, -0.0077082915, 0.0020544752, 0.10491848, 0
470, 1815079070, 0.9355827, 0.05633033, -0.29145166, 0.19122788, -0.0041432595, 0.013925695, 0.1183033, 0
471, 1815095737, 0.93560976, 0.05591351, -0.29147172, 0.19118735, 0.018720103, 0.020152878, 0.11984348, 0
472, 1815112404, 0.9356055, 0.05552097, -0.2914764, 0.1913153, -0.010174533, -0.009940348, 0.10359192, 0
473, 1815129071, 0.93565315, 0.05506309, -0.29151157, 0.19116133, 0.018345049, 0.0063030096, 0.13771915, 0
474, 1815145738, 0.9356931, 0.05463441, -0.2915496, 0.19103001, 0.028366923, 0.01347487, 0.12444496, 0
475, 1815162405, 0.9357096, 0.05431482, -0.2915863, 0.19098413, -4.023233E-5, -0.006372522, 0.1316824, 0
476, 1815179072, 0.93574834, 0.054040942, -0.29162428, 0.19081399, 0.0019275757, 0.02840548, 0.13435173, 0
477, 1815195739, 0.93575674, 0.05383517, -0.29165062, 0.19079068, -0.0028245333, -0.0041637667, 0.12847519, 0
478, 1815212406, 0.93574834, 0.05370951, -0.291687, 0.19081183, 0.01486987, -0.012767116, 0.14426613, 0
479, 1815229073, 0.9357335, 0.05362988, -0.29173955, 0.19082701, 0.002559894, 0.01109088, 0.11343098, 0
480, 1815245740, 0.9357378, 0.053560384, -0.29174376, 0.19081815, -0.010807522, 0.002393321, 0.111922264, 0
481, 1815262407, 0.93573636, 0.05350797, -0.2917385, 0.19084801, 0.0043332456, 0.020041289, 0.12695026, 0
482, 1815279074, 0.9357498, 0.05343599, -0.29171735, 0.19083458, 0.017269505, -0.0052988217, 0.12720203, 0
483, 1815295741, 0.9357683, 0.05334133, -0.2916788, 0.1908294, 0.03387048, 0.006549153, 0.12229633, 0
484, 1815312408, 0.93581384, 0.053195473, -0.29162621, 0.19072714, 0.029374072, 0.029009802, 0.1215744, 0
485, 1815329075, 0.9359042, 0.052976042, -0.29150352, 0.19053249, 0.028572332, 0.0374354, 0.11851978, 0
486, 1815345742, 0.93597937, 0.052789964, -0.29137173, 0.19041637, -0.0026716504, 0.011270696, 0.117866516, 0
487, 1815362409, 0.9360305, 0.052669145, -0.2912597, 0.19036989, -0.04435905, -0.02252843, 0.10538578, 0
488, 1815379076, 0.93604505, 0.052593708, -0.29121915, 0.19038132, -0.0629218, -0.02675573, 0.113731384, 0
489, 1815395743, 0.93603534, 0.052565143, -0.2912705, 0.19035847, -0.05555638, -0.030111106, 0.12189579, 0
490, 1815412410, 0.9360346, 0.05253985, -0.29135936, 0.19023313, -0.015000401, -0.016095614, 0.11176777, 0
491, 1815429077, 0.9359895, 0.052598212, -0.29142118, 0.19034378, 0.026363576, 0.027245894, 0.14389038, 0
492, 1815445744, 0.9359863, 0.052583706, -0.2914176, 0.19036888, 0.047370665, 0.032298964, 0.13020611, 0
493, 1815462411, 0.93602175, 0.05251547, -0.29135427, 0.19031088, 0.051709723, 0.04209369, 0.120529175, 0
494, 1815479078, 0.93610793, 0.05232298, -0.29125744, 0.19008818, 0.023950083, 0.008739245, 0.12840462, 0
495, 1815495745, 0.9361535, 0.052172072, -0.2911205, 0.1901154, 0.005514512, 0.016658867, 0.11111641, 0
496, 1815512412, 0.9361752, 0.052060265, -0.29100516, 0.19021499, -0.022123983, -0.009624412, 0.13873768, 0
497, 1815529079, 0.93617046, 0.052001495, -0.29097018, 0.19030802, -0.018515144, -0.01756661, 0.1372242, 0
498, 1815545746, 0.93615603, 0.051946975, -0.2910272, 0.19030686, -0.032893732, -0.027284032, 0.13086319, 0
499, 1815562413, 0.93613505, 0.05189099, -0.29109928, 0.19031517, -0.013980512, 0.008095304, 0.10822487, 0
500, 1815579080, 0.9361401, 0.05182546, -0.29113808, 0.19024855, 0.021395108, 0.02036991, 0.13265514, 0
501, 1815595747, 0.93612576, 0.05177805, -0.2911478, 0.19031724, 0.012394464, 0.0064810375, 0.109929085, 0
502, 1815612414, 0.9361028, 0.05176759, -0.2911352, 0.19045253, -0.009383968, -0.012432852, 0.12541485, 0
503, 1815629081, 0.93609315, 0.05174689, -0.29119223, 0.19041774, -0.030226998, -0.009571998, 0.10831642, 0
504, 1815645748, 0.9360697, 0.051761735, -0.29126912, 0.19041109, 4.0455844E-4, -0.01343447, 0.11801052, 0
505, 1815662415, 0.9360219, 0.05180753, -0.29135394, 0.19050448, 0.0049651167, -0.003449196, 0.13403034, 0
506, 1815679082, 0.9360061, 0.051802486, -0.29143962, 0.19045247, 0.02727484, 0.028976219, 0.1225214, 0
507, 1815695749, 0.93599343, 0.05180908, -0.2914518, 0.19049405, 0.030678047, 0.013958664, 0.12739658, 0
508, 1815712416, 0.93599576, 0.05179056, -0.2914422, 0.19050246, 0.007634085, 0.021640971, 0.14362049, 0
509, 1815729083, 0.9359837, 0.051806834, -0.2914288, 0.19057752, 0.009897154, 0.012752532, 0.10881138, 0
510, 1815745750, 0.9360169, 0.05173892, -0.2914284, 0.19043353, 0.0035113886, -0.0016440495, 0.1196928, 0
511, 1815762417, 0.93603814, 0.051679436, -0.29140964, 0.1903745, 0.012041537, 0.014243084, 0.10893917, 0
512, 1815779084, 0.9360525, 0.051629785, -0.291381, 0.19036117, 0.0123680895, 0.012787959, 0.12493229, 0
513, 1815795751, 0.93605435, 0.051609535, -0.2913301, 0.19043535, 0.0067476328, 0.008119946, 0.11136246, 0
514, 1815812418, 0.936079, 0.051570367, -0.29126748, 0.1904206, 0.0025909622, -0.0015233526, 0.13470364, 0
515, 1815829085, 0.9360797, 0.051564157, -0.2912554, 0.19043732, -0.02170579, -0.0033609644, 0.12740421, 0
516, 1815845752, 0.936069, 0.05156116, -0.29128736, 0.19044152, -0.052071143, 4.319388E-4, 0.121813774, 0
517, 1815862419, 0.93605345, 0.051554795, -0.29137266, 0.19038928, -0.012046231, -0.0075942995, 0.10218716, 0
518, 1815879086, 0.9360229, 0.051555645, -0.29146126, 0.19040354, 9.526122E-4, -0.0074823196, 0.09745598, 0
519, 1815895753, 0.93599254, 0.05158365, -0.2915153, 0.1904623, 0.022038154, 0.010016509, 0.13796616, 0
520, 1815912420, 0.9360046, 0.051559456, -0.29153925, 0.1903734, 0.028787127, -4.3870005E-4, 0.14292622, 0
521, 1815929087, 0.9360358, 0.051508933, -0.29153994, 0.19023296, 0.037601583, 0.027352566, 0.1178484, 0
522, 1815945754, 0.93605334, 0.05147536, -0.29147592, 0.19025327, 0.026839882, 0.012924301, 0.110580444, 0
523, 1815962421, 0.93608576, 0.05142261, -0.2914082, 0.19021147, -0.0019821129, 0.023169689, 0.1273241, 0
524, 1815979088, 0.9361152, 0.05137385, -0.2913464, 0.19017416, -0.033409823, -0.009526569, 0.104831696, 0
525, 1815995755, 0.93611753, 0.05136438, -0.29131666, 0.19021131, -0.047455154, -0.023893703, 0.107792854, 0
526, 1816012422, 0.9361168, 0.051355775, -0.29133317, 0.19019179, -0.0019640084, -0.018928222, 0.13838577, 0
527, 1816029089, 0.9361087, 0.051344756, -0.29133946, 0.19022505, 0.010177886, 0.00968286, 0.122270584, 0
528, 1816045756, 0.93613195, 0.05128486, -0.29127866, 0.19021982, 0.045096196, 0.038350575, 0.13239098, 0
529, 1816062423, 0.9361794, 0.051162742, -0.29117826, 0.19017272, 0.040330455, 0.022722773, 0.13339329, 0
530, 1816079090, 0.93624026, 0.051010817, -0.29105166, 0.19010839, 0.020710487, 0.009965604, 0.12377548, 0
531, 1816095757, 0.9362921, 0.05090822, -0.29093802, 0.19005449, -0.009909894, -0.017044008, 0.11644554, 0
532, 1816112424, 0.93632096, 0.050846044, -0.29084244, 0.19007492, -0.04766034, -0.022097273, 0.10533905, 0
533, 1816129091, 0.93634146, 0.05079157, -0.29076567, 0.19010597, -0.021174723, -0.0010843172, 0.11060619, 0
534, 1816145758, 0.93634856, 0.050752804, -0.29073548, 0.19012752, -0.006876823, -0.010964428, 0.15037727, 0
535, 1816162425, 0.93636876, 0.050717518, -0.29072312, 0.19005649, 0.0025652582, 0.004648455, 0.11590767, 0
536, 1816179092, 0.9363813, 0.050693303, -0.2906929, 0.19004704, 0.012662009, 0.015695862, 0.11135864, 0
537, 1816195759, 0.93641657, 0.050616045, -0.29064637, 0.18996494, 0.031463023, 0.03079623, 0.12111473, 0
538, 1816212426, 0.93644094, 0.05054711, -0.29058972, 0.18994951, 0.012514491, -0.005772725, 0.12407875, 0
539, 1816229093, 0.93646115, 0.050477326, -0.29051435, 0.1899839, -0.025988745, -0.006092684, 0.13400841, 0
540, 1816245760, 0.9364827, 0.050419513, -0.29049468, 0.18992311, -0.04381301, -0.0109587, 0.1329298, 0
541, 1816262427, 0.9364574, 0.05044168, -0.2905354, 0.18997982, -0.03944758, -0.019861277, 0.120996475, 0
542, 1816279094, 0.93643266, 0.05048785, -0.2905859, 0.19001245, -0.02542728, -0.005221598, 0.111992836, 0
543, 1816295761, 0.9363974, 0.050540905, -0.2906551, 0.19006607, 0.007607934, 0.0053544203, 0.123986244, 0
544, 1816312428, 0.93637365, 0.05059175, -0.2907265, 0.19006027, 0.0013097859, 0.011530475, 0.11342621, 0
545, 1816329095, 0.9363615, 0.050627586, -0.29078084, 0.19002742, 0.021749375, 0.022995181, 0.10591698, 0
546, 1816345762, 0.93636686, 0.050633967, -0.29078633, 0.18999097, 0.023713607, 0.025643753, 0.13322163, 0
547, 1816362429, 0.9363437, 0.050669394, -0.29077488, 0.19011326, 0.014652839, 0.0057600965, 0.12540913, 0
548, 1816379096, 0.9363468, 0.050686155, -0.29074237, 0.19014333, -0.009839487, 0.0024174044, 0.12681389, 0
549, 1816395763, 0.9363486, 0.05070302, -0.29072577, 0.19015518, -0.03049566, 0.006212878, 0.13461399, 0
550, 1816412430, 0.93633926, 0.050728206, -0.29075804, 0.19014534, -0.030798968, -0.009452642, 0.1236496, 0
551, 1816429097, 0.9363424, 0.050733518, -0.29079965, 0.19006476, -0.0054581864, 0.0021822688, 0.13164902, 0
552, 1816445764, 0.93633014, 0.05077837, -0.29082334, 0.19007717, 0.04276943, 0.01988958, 0.12940311, 0
553, 1816462431, 0.9363403, 0.050758936, -0.29081577, 0.1900441, 0.021312185, 0.0027387042, 0.12310028, 0
554, 1816479098, 0.93638426, 0.050676458, -0.29078338, 0.18989858, 0.03321559, 0.019775644, 0.13678074, 0
555, 1816495765, 0.9363734, 0.050674696, -0.29076248, 0.18998456, 2.7939119E-5, -0.009735274, 0.1163311, 0
556, 1816512432, 0.9363648, 0.050677724, -0.29076207, 0.19002648, -0.019286038, -0.01646715, 0.118079185, 0
557, 1816529099, 0.93636525, 0.050686117, -0.29078013, 0.18999523, -0.022337215, -0.008360754, 0.113277435, 0
558, 1816545766, 0.9363695, 0.050687373, -0.29083937, 0.18988293, -0.017318007, 0.0021644435, 0.13075733, 0
559, 1816562433, 0.93635195, 0.05072135, -0.2908977, 0.18987043, -0.0017257435, -0.013256414, 0.11804676, 0
560, 1816579100, 0.9363295, 0.05076501, -0.29089266, 0.18997765, 0.017926186, 0.02202491, 0.11628342, 0
561, 1816595767, 0.9363164, 0.05079, -0.29086325, 0.19008051, 0.025824016, 0.01784846, 0.13625336, 0
562, 1816612434, 0.93627536, 0.050841004, -0.2908651, 0.1902659, -0.017911434, 0.0039944, 0.11505985, 0
563, 1816629101, 0.9362685, 0.050851032, -0.2909116, 0.19022578, -0.013711179, 0.0011114181, 0.102212906, 0
564, 1816645768, 0.93628424, 0.05083099, -0.2909434, 0.19010529, 0.022704894, 0.010340435, 0.13145447, 0
565, 1816662435, 0.93627244, 0.050842497, -0.29097566, 0.19011104, 0.03725916, 0.009061104, 0.1402235, 0
566, 1816679102, 0.93628436, 0.050831843, -0.29094496, 0.19010223, 0.017054709, 0.017038, 0.1091032, 0
567, 1816695769, 0.93631214, 0.050790213, -0.29090372, 0.19003989, -0.0129219545, -0.0015403954, 0.13585949, 0
568, 1816712436, 0.93634754, 0.05075022, -0.29087275, 0.1899233, 0.011155308, -9.264612E-5, 0.113744736, 0
569, 1816729103, 0.93638486, 0.050709907, -0.29081136, 0.18984415, 0.021990322, 0.02797259, 0.1379137, 0
570, 1816745770, 0.93643403, 0.050637428, -0.29073063, 0.18974467, 0.019666234, 0.0038331354, 0.12654305, 0
571, 1816762437, 0.9364808, 0.050540138, -0.29062313, 0.1897043, -0.0021202439, -1.72552E-4, 0.1429348, 0
572, 1816779104, 0.93653494, 0.050452437, -0.29049328, 0.1896597, -0.016098296, -0.008543615, 0.11665535, 0
573, 1816795771, 0.9365987, 0.050345704, -0.29039022, 0.18953018, 8.828762E-5, 2.1194616E-4, 0.12546253, 0
574, 1816812438, 0.9366387, 0.050271824, -0.2902956, 0.18949735, -0.0029186322, 0.023135602, 0.11691284, 0
575, 1816829105, 0.9367093, 0.05014132, -0.2901837, 0.18935491, 0.03134501, 0.027178533, 0.124858856, 0
576, 1816845772, 0.93675774, 0.05004407, -0.2900498, 0.18934608, 0.025306137, 0.024481794, 0.12904072, 0
577, 1816862439, 0.9368124, 0.04992148, -0.2899228, 0.1893025, -0.007896266, -0.013422763, 0.124586105, 0
578, 1816879106, 0.9368556, 0.049818516, -0.28980002, 0.18930309, -0.031453412, -0.012830258, 0.1205101, 0
579, 1816895773, 0.9368634, 0.0497972, -0.2897019, 0.18942021, -0.04521198, -0.020142764, 0.1374321, 0
580, 1816912440, 0.9368716, 0.04978224, -0.28968185, 0.1894143, -0.038012177, -0.025439406, 0.10941315, 0
581, 1816929107, 0.9368848, 0.049777247, -0.28966764, 0.18937172, -0.015010683, -0.00816342, 0.1185894, 0
582, 1816945774, 0.93691593, 0.049755204, -0.28965878, 0.1892378, 0.039635107, 0.024197401, 0.13718224, 0
583, 1816962441, 0.9369373, 0.049736854, -0.2896036, 0.18922116, 0.036774363, 0.019633211, 0.117238045, 0
584, 1816979108, 0.93693066, 0.049735624, -0.28949732, 0.18941693, 0.016991232, 0.0065553556, 0.13358498, 0
585, 1816995775, 0.93697184, 0.049665954, -0.28941166, 0.18936224, -0.017467538, -2.2155722E-5, 0.12186718, 0
586, 1817012442, 0.93697935, 0.049639147, -0.28937402, 0.18938947, -0.030389939, -0.0126114115, 0.12541962, 0
587, 1817029109, 0.9369789, 0.049636003, -0.2893643, 0.18940735, -0.028431294, -0.0072168983, 0.11343956, 0
588, 1817045776, 0.9369554, 0.049652305, -0.28939393, 0.18947412, -0.007842623, -0.017380089, 0.11054134, 0
589, 1817062443, 0.93694067, 0.049681358, -0.28944072, 0.18946786, -0.021007983, -0.01119012, 0.1230402, 0
590, 1817079110, 0.93692803, 0.04972186, -0.2894851, 0.18945175, 0.010069706, 3.910918E-4, 0.13430119, 0
591, 1817095777, 0.93687284, 0.049820393, -0.28952545, 0.18963672, 0.011918829, 0.0059226463, 0.120708466, 0
592, 1817112444, 0.9368433, 0.049882043, -0.28954938, 0.18973075, 0.014126689, 0.018320408, 0.11867428, 0
593, 1817129111, 0.93683624, 0.049908552, -0.28957355, 0.18972133, 0.008352232, 4.971766E-4, 0.13027191, 0
594, 1817145778, 0.93681127, 0.049953353, -0.28958526, 0.189815, 0.0152453715, 0.023956006, 0.1246748, 0
595, 1817162445, 0.9368274, 0.049935598, -0.28958642, 0.18973844, 0.005432259, -0.004777226, 0.13913345, 0
596, 1817179112, 0.936796, 0.04997992, -0.28958347, 0.18988644, -0.015126463, 0.011966129, 0.12565231, 0
597, 1817195779, 0.9368352, 0.049913306, -0.28960943, 0.18967074, -0.0154845305, 0.0057669138, 0.10481644, 0
598, 1817212446, 0.9368361, 0.049923133, -0.2896232, 0.1896426, -0.014021191, -0.010811489, 0.12738037, 0
599, 1817229113, 0.9368589, 0.04989303, -0.2896396, 0.1895128, 0.0075174114, 0.015982881, 0.124931335, 0
600, 1817245780, 0.93686277, 0.049901698, -0.2896237, 0.18951547, 0.020674054, 0.024298094, 0.12517834, 0
601, 1817262447, 0.936853, 0.049918756, -0.28957695, 0.18963067, 0.0076054754, 0.016088268, 0.1352005, 0
602, 1817279114, 0.93688583, 0.04988265, -0.2895621, 0.18950072, -0.019897794, 0.0047384747, 0.12848663, 0
603, 1817295781, 0.9368808, 0.04988926, -0.28956288, 0.18952253, -0.020562522, -0.0088271415, 0.113521576, 0
604, 1817312448, 0.93686146, 0.049942423, -0.289573, 0.18958858, 0.0015719666, -0.010937635, 0.12903214, 0
605, 1817329115, 0.93685377, 0.049978215, -0.28957567, 0.18961388, 0.027152577, 0.022931311, 0.11853218, 0
606, 1817345782, 0.9368677, 0.04997759, -0.28954038, 0.18959844, -0.010115749, 0.0150784915, 0.120700836, 0
607, 1817362449, 0.9368816, 0.049959335, -0.2894856, 0.18961826, -2.8967278E-4, 0.01850693, 0.1332531, 0
608, 1817379116, 0.9368942, 0.049930736, -0.28943178, 0.1896459, 0.014944747, 0.0032902225, 0.1353178, 0
609, 1817395783, 0.93691534, 0.04988564, -0.28938803, 0.18962029, -0.042852126, -0.0016646128, 0.117733955, 0
610, 1817412450, 0.9369112, 0.049882047, -0.28940585, 0.18961424, -0.019323813, -0.0063714324, 0.13968563, 0
611, 1817429117, 0.93689233, 0.04989698, -0.28945452, 0.18962918, -0.0017183676, 0.006978801, 0.11811161, 0
612, 1817445784, 0.93687457, 0.049918763, -0.289473, 0.18968269, 0.007554738, 0.02493558, 0.124287605, 0
613, 1817462451, 0.936851, 0.049960054, -0.28946605, 0.18979855, 0.03472341, 0.022028962, 0.12792492, 0
614, 1817479118, 0.936849, 0.049992837, -0.28946966, 0.18979445, -1.2315564E-4, -0.0035672667, 0.14209652, 0
615, 1817495785, 0.93683904, 0.050035864, -0.289462, 0.18984368, 0.007618886, 0.012441457, 0.1453743, 0
616, 1817512452, 0.9368218, 0.050076347, -0.28943485, 0.18996, 0.042531833, 0.00917747, 0.14320564, 0
617, 1817529119, 0.93683326, 0.050068524, -0.2893962, 0.18996486, 0.023881689, 0.021119349, 0.11574364, 0
618, 1817545786, 0.9368444, 0.05007253, -0.28932816, 0.19001192, -0.017928198, 0.004113728, 0.11243248, 0
619, 1817562453, 0.93685395, 0.050056327, -0.28928083, 0.19004123, -0.017012242, 0.001231724, 0.12649822, 0
620, 1817579120, 0.93686163, 0.050054673, -0.2892601, 0.1900353, -0.009421071, 0.0023131636, 0.122553825, 0
621, 1817595787, 0.9368861, 0.05002899, -0.28923053, 0.18996674, 0.0036434848, 0.01581491, 0.11611748, 0
622, 1817612454, 0.9368817, 0.05005494, -0.28915775, 0.19009227, 0.040670417, 0.019588983, 0.1416254, 0
623, 1817629121, 0.9369043, 0.050015528, -0.289079, 0.19011143, 0.0103779305, 7.476788E-4, 0.11953926, 0
624, 1817645788, 0.93693656, 0.04995245, -0.28899178, 0.19010118, 0.0058325706, -2.566208E-4, 0.1342268, 0
625, 1817662455, 0.9369411, 0.049953055, -0.28894067, 0.19015664, -0.027893076, -0.016166134, 0.1279192, 0
626, 1817679122, 0.9369641, 0.049909387, -0.2889482, 0.19004329, -0.01721251, -0.013207213, 0.11323738, 0
627, 1817695789, 0.9369622, 0.04991365, -0.2889587, 0.19003534, 0.0035424568, 0.0054703956, 0.1306324, 0
628, 1817712456, 0.9369567, 0.04992486, -0.28895205, 0.19006933, 0.0014615512, -0.0044136825, 0.13969994, 0
629, 1817729123, 0.936962, 0.04993465, -0.28892833, 0.1900773, -0.0028730356, 0.0110022295, 0.124438286, 0
630, 1817745790, 0.9369691, 0.049926177, -0.2889066, 0.19007707, -0.002598785, 0.0014528622, 0.119335175, 0
631, 1817762457, 0.93697834, 0.049905673, -0.2888714, 0.19009057, 0.022971097, 0.01389323, 0.12446499, 0
632, 1817779124, 0.9370117, 0.04984493, -0.2888242, 0.19001363, 0.0139105525, -0.005090927, 0.12852001, 0
633, 1817795791, 0.93703836, 0.04979554, -0.28874558, 0.19001481, -0.0012869876, 0.016390372, 0.1090765, 0
634, 1817812458, 0.9370686, 0.049738035, -0.28868797, 0.18996853, -0.019110804, -0.01078559, 0.12965012, 0
635, 1817829125, 0.93707776, 0.049719013, -0.2886924, 0.1899217, -0.03348783, -0.020980937, 0.112636566, 0
636, 1817845792, 0.9370646, 0.049759123, -0.288726, 0.18992445, -0.023932872, -0.007616176, 0.11527252, 0
637, 1817862459, 0.9370625, 0.04979209, -0.28875253, 0.18988585, -0.012495715, 0.020626446, 0.12631893, 0
638, 1817879126, 0.9370606, 0.049807686, -0.28877345, 0.1898592, 0.032650325, 0.023900324, 0.12677383, 0
639, 1817895793, 0.9370483, 0.04979919, -0.2887613, 0.1899405, 0.030095125, 0.025262328, 0.12764263, 0
640, 1817912460, 0.93706673, 0.04974044, -0.28871968, 0.18992819, 0.007132969, 0.0076447017, 0.11522198, 0
641, 1817929127, 0.93706846, 0.049743682, -0.2887034, 0.18994364, -0.028189454, -0.022379179, 0.13487148, 0
642, 1817945794, 0.9370443, 0.049779266, -0.28877258, 0.18994835, -0.060128786, -0.019497538, 0.10300827, 0
643, 1817962461, 0.93701357, 0.04984143, -0.28885368, 0.18996051, -0.024659067, -0.002216103, 0.109695435, 0
644, 1817979128, 0.93696326, 0.049933493, -0.28891072, 0.19009782, 0.032852158, 0.028615609, 0.14973164, 0
645, 1817995795, 0.9369819, 0.04990427, -0.28891608, 0.1900051, 0.03796524, 0.026596002, 0.13590813, 0
646, 1818012462, 0.93698823, 0.04989943, -0.28886077, 0.19005948, 0.029843673, 0.03440496, 0.14413357, 0
647, 1818029129, 0.937038, 0.049802672, -0.2888125, 0.18991318, 2.9816627E-4, 0.016524872, 0.111400604, 0
648, 1818045796, 0.9370609, 0.049753252, -0.28874376, 0.1899171, -0.0025759868, 0.004150496, 0.12916088, 0
649, 1818062463, 0.93705213, 0.049758114, -0.28875265, 0.18994565, -0.017876118, -0.009556743, 0.14367104, 0
650, 1818079130, 0.9370338, 0.049805325, -0.2888001, 0.1899516, -0.03531147, -0.026198205, 0.12093067, 0
651, 1818095797, 0.9369926, 0.049881138, -0.28884187, 0.19007124, 0.0037760278, 0.010389972, 0.13465214, 0
652, 1818112464, 0.93696463, 0.04992556, -0.28885508, 0.19017726, 0.03401666, 0.014193101, 0.13331985, 0
653, 1818129131, 0.9369936, 0.049883056, -0.28881648, 0.19010432, 0.024203772, 0.035500173, 0.13056087, 0
654, 1818145798, 0.93698823, 0.04990075, -0.28874964, 0.19022803, 0.0066595683, -0.0028426656, 0.12151909, 0
655, 1818162465, 0.9369769, 0.049924713, -0.28870237, 0.19034913, -0.007791885, -9.822277E-4, 0.11198425, 0
656, 1818179132, 0.9369732, 0.04991805, -0.28870055, 0.19037163, -0.016979385, -0.017008023, 0.14446831, 0
657, 1818195799, 0.9369499, 0.049945027, -0.28877175, 0.19037168, -0.017326053, -0.0034792307, 0.12320709, 0
658, 1818212466, 0.93695337, 0.049920883, -0.28879175, 0.19033036, 0.011287404, -0.0037549897, 0.11976433, 0
659, 1818229133, 0.93695706, 0.049916975, -0.28874567, 0.19038306, 0.047708392, 0.01649886, 0.13261604, 0
660, 1818245800, 0.9369763, 0.04990697, -0.2886981, 0.19036296, -0.013577965, -0.010124187, 0.11818981, 0
661, 1818262467, 0.93698835, 0.04989754, -0.28868705, 0.19032304, -0.03000192, -0.006438151, 0.11769009, 0
662, 1818279134, 0.93697107, 0.049942106, -0.28872907, 0.19033296, -0.019551795, 0.006381127, 0.12751675, 0
663, 1818295801, 0.93696487, 0.049974367, -0.28876364, 0.19030236, -0.0025663758, 0.012695033, 0.14240932, 0
664, 1818312468, 0.9369585, 0.04998328, -0.28879395, 0.19028556, 0.009240026, 0.0053773583, 0.13122177, 0
665, 1818329135, 0.93694705, 0.050009757, -0.2888259, 0.19028644, -0.026323121, -0.009677106, 0.12863255, 0
666, 1818345802, 0.9369986, 0.04993175, -0.2888227, 0.19005804, 0.031928826, 0.0037214628, 0.13088226, 0
667, 1818362469, 0.93700767, 0.04991884, -0.28878796, 0.19006966, 0.04539906, 0.01575906, 0.13934612, 0
668, 1818379136, 0.93706554, 0.04982679, -0.2887183, 0.18991339, 0.038735688, 0.023728471, 0.1187582, 0
669, 1818395803, 0.9371023, 0.049736686, -0.28859144, 0.18994859, 0.021865603, 0.033526104, 0.13436031, 0
670, 1818412470, 0.9371562, 0.049593803, -0.28843677, 0.18995541, 0.01749123, 0.009664421, 0.12621212, 0
671, 1818429137, 0.9372211, 0.049447596, -0.2882768, 0.18991634, -0.017038168, 0.0018530062, 0.124892235, 0
672, 1818445804, 0.93725276, 0.049334835, -0.2882138, 0.18988512, -0.08145192, -0.045981646, 0.12113953, 0
673, 1818462471, 0.93724316, 0.049342185, -0.28821975, 0.1899209, -0.06389364, -0.026826024, 0.11512375, 0
674, 1818479138, 0.9372241, 0.049375698, -0.288277, 0.18991937, -0.028763212, -0.025747156, 0.11669159, 0
675, 1818495805, 0.9371725, 0.049484, -0.28833413, 0.19005965, 0.025707565, 0.007265847, 0.13363838, 0
676, 1818512472, 0.9371606, 0.04953992, -0.2883386, 0.19009653, 0.05073543, 0.028797101, 0.13422585, 0
677, 1818529139, 0.93717736, 0.049544778, -0.28828433, 0.1900949, 0.048112057, 0.032133397, 0.1390419, 0
678, 1818545806, 0.9372199, 0.049493752, -0.28816646, 0.19007684, 0.02358531, 0.008077786, 0.12465954, 0
679, 1818562473, 0.9372587, 0.049436457, -0.2880492, 0.19007906, -0.022128006, -0.005412115, 0.13994789, 0
680, 1818579140, 0.93730354, 0.04937764, -0.28801966, 0.18991745, -0.06997542, -0.033727128, 0.13021278, 0
681, 1818595807, 0.93730134, 0.049438544, -0.28802633, 0.18990272, -0.0581346, -0.035001177, 0.106637, 0
682, 1818612474, 0.93728, 0.049558, -0.28806037, 0.18992521, -0.018725244, 0.0013361325, 0.14053917, 0
683, 1818629141, 0.9372346, 0.04971678, -0.28812975, 0.19000252, 0.018993907, 0.018320855, 0.14098072, 0
684, 1818645808, 0.9372189, 0.049815986, -0.2881614, 0.19000544, 0.049311206, 0.012899044, 0.11368084, 0
685, 1818662475, 0.93722266, 0.049831927, -0.28812596, 0.19003652, 0.06507088, 0.032769654, 0.14527035, 0
686, 1818679142, 0.937235, 0.04982296, -0.28805572, 0.19008486, 0.025320666, 0.031714924, 0.12644386, 0
687, 1818695809, 0.9372362, 0.049820147, -0.28799134, 0.1901775, -0.029894412, -0.016802335, 0.1169405, 0
688, 1818712476, 0.93720317, 0.04986594, -0.28804708, 0.19024345, -0.076544024, -0.043534458, 0.12715054, 0
689, 1818729143, 0.93716055, 0.049942162, -0.2881744, 0.19024047, -0.04333268, -0.025238523, 0.12457371, 0
690, 1818745810, 0.93710613, 0.05003739, -0.28828782, 0.19031179, 0.017466644, 0.016872099, 0.1380539, 0
691, 1818762477, 0.93709296, 0.050049357, -0.28835168, 0.19027677, 0.041257586, 0.025216984, 0.1332655, 0
692, 1818779144, 0.9370905, 0.05001282, -0.28835496, 0.19029343, 0.02726411, 0.020568557, 0.13338566, 0
693, 1818795811, 0.93710846, 0.04996399, -0.28831112, 0.19028454, 0.019595157, 0.017859776, 0.13763046, 0
694, 1818812478, 0.93714124, 0.049897544, -0.2882857, 0.19017865, -0.0034684741, 5.1254313E-4, 0.12655735, 0
695, 1818829145, 0.93715304, 0.04985392, -0.2882997, 0.19011085, -0.018019615, -0.017247992, 0.1374979, 0
696, 1818845812, 0.93712103, 0.049897637, -0.28833005, 0.1902111, -0.0046121897, -0.0037713062, 0.13963318, 0
697, 1818862479, 0.9371179, 0.049896475, -0.28835866, 0.19018357, -0.004130296, 0.0077595036, 0.1284914, 0
698, 1818879146, 0.9371116, 0.049917083, -0.2883837, 0.1901711, 0.025702203, -0.0044632186, 0.12213898, 0
699, 1818895813, 0.9371213, 0.04990857, -0.28838712, 0.19012064, 0.008510256, -0.0028194762, 0.10903931, 0
700, 1818912480, 0.9371275, 0.049903635, -0.28837302, 0.19011278, 0.008868547, -0.0070217713, 0.13769817, 0
701, 1818929147, 0.9371214, 0.049914382, -0.28836372, 0.19015424, -0.0015876126, -0.008974241, 0.11371899, 0
702, 1818945814, 0.93711096, 0.04992549, -0.28838614, 0.1901681, -0.017613268, -0.008736479, 0.1326561, 0
703, 1818962481, 0.93710315, 0.04994731, -0.28844586, 0.19011036, -0.009874355, -0.009327587, 0.1292324, 0
704, 1818979148, 0.93707865, 0.049994055, -0.28849298, 0.19014722, 0.010460854, -0.0022962324, 0.1277132, 0
705, 1818995815, 0.9370591, 0.0500384, -0.28848836, 0.19023895, 0.043763388, 0.008795989, 0.13495445, 0
706, 1819012482, 0.93706584, 0.05005268, -0.28844416, 0.19026914, 0.028951857, 0.0057302294, 0.13626671, 0
707, 1819029149, 0.93699604, 0.05017319, -0.28833646, 0.19074398, 0.0035741958, 0.008457479, 0.13286209, 0
708, 1819045816, 0.9370206, 0.050156195, -0.28825834, 0.1907458, 0.004540442, 0.011518489, 0.1258831, 0
709, 1819062483, 0.9370456, 0.05010473, -0.288189, 0.19074103, -0.005138116, 0.0046788803, 0.13221645, 0
710, 1819079150, 0.9370742, 0.050040834, -0.28810796, 0.19074005, 0.0015813542, -0.0027666155, 0.14290905, 0
711, 1819095817, 0.9370937, 0.049983233, -0.28806165, 0.19072978, -0.021695284, -0.014421112, 0.13149166, 0
712, 1819112484, 0.9370836, 0.049989972, -0.28805766, 0.19078292, -0.043166388, -0.03478887, 0.11480522, 0
713, 1819129151, 0.93705946, 0.050028514, -0.2880857, 0.19084905, -0.0052858577, -4.3098885E-4, 0.13891506, 0
714, 1819145818, 0.93705004, 0.050052926, -0.28811127, 0.19085053, 0.011123793, 0.020697467, 0.12997532, 0
715, 1819162485, 0.9370568, 0.05003755, -0.28807077, 0.19088256, 0.031609874, 0.013791336, 0.12505722, 0
716, 1819179152, 0.93710357, 0.049945347, -0.28800255, 0.19077975, 0.029866695, 0.02849117, 0.13685226, 0
717, 1819195819, 0.9371621, 0.049829897, -0.28791788, 0.1906502, 0.009516735, -0.009772602, 0.13354301, 0
718, 1819212486, 0.93715703, 0.0498271, -0.28785318, 0.19077353, -0.031834725, -0.02217268, 0.13104725, 0
719, 1819229153, 0.9371473, 0.049847808, -0.28786814, 0.19079353, -0.0515593, -0.029446881, 0.11787033, 0
720, 1819245820, 0.93711543, 0.04992249, -0.28792813, 0.1908402, -0.03688746, -0.010523604, 0.11271286, 0
721, 1819262487, 0.9370827, 0.05000086, -0.2879935, 0.19088161, 0.009173418, 0.02160032, 0.1381712, 0
722, 1819279154, 0.9370714, 0.050028846, -0.28799498, 0.19092801, 0.04220193, 0.038936432, 0.12794876, 0
723, 1819295821, 0.9370879, 0.049997568, -0.28794777, 0.19092633, 0.05623653, 0.018001035, 0.14229393, 0
724, 1819312488, 0.93711656, 0.049932458, -0.28787768, 0.19090828, 0.017058956, 0.011708614, 0.12667465, 0
725, 1819329155, 0.9371514, 0.049872104, -0.28778872, 0.19088706, -0.0057469653, 0.012120772, 0.12366581, 0
726, 1819345822, 0.9371742, 0.04981627, -0.2877269, 0.19088304, -0.033564493, -0.024605842, 0.1439619, 0
727, 1819362489, 0.9371824, 0.049785558, -0.28774866, 0.19081718, -0.047208395, -0.014521553, 0.12112427, 0
728, 1819379156, 0.9371524, 0.049816128, -0.2878217, 0.19084689, -0.042550385, -0.014622749, 0.10716057, 0
729, 1819395823, 0.93708897, 0.049917933, -0.28789312, 0.19102433, 0.011339483, 0.01177863, 0.13908386, 0
730, 1819412490, 0.93705297, 0.049977154, -0.2879488, 0.1911009, 0.015077514, 0.024290774, 0.12633514, 0
731, 1819429157, 0.93704164, 0.050009586, -0.28795937, 0.19113193, 0.029485159, -0.008469492, 0.133811, 0
732, 1819445824, 0.93703765, 0.05001233, -0.2879584, 0.19115226, 0.031870265, -0.0022741326, 0.14425278, 0
733, 1819462491, 0.93704414, 0.05000907, -0.28795207, 0.19113073, 0.041587714, 0.0065977112, 0.123324394, 0
734, 1819479158, 0.93707657, 0.049958095, -0.2879546, 0.19098137, -0.012872335, -0.0070308517, 0.13071346, 0
735, 1819495825, 0.93708086, 0.049953192, -0.28796086, 0.19095212, -0.019893548, -0.0059189303, 0.12118244, 0
736, 1819512492, 0.9370766, 0.049968172, -0.28796732, 0.19095966, -0.013854451, -0.005719529, 0.11582661, 0
737, 1819529159, 0.9370337, 0.050039038, -0.28799465, 0.1911097, -0.012751414, 0.009373742, 0.12240887, 0
738, 1819545826, 0.93701917, 0.050069995, -0.2880287, 0.19112182, -0.006788312, -0.020495718, 0.13478756, 0
739, 1819562493, 0.9369925, 0.050122064, -0.2880553, 0.19119878, 0.017730389, 0.0028600998, 0.13764, 0
740, 1819579160, 0.93699884, 0.050118376, -0.28804755, 0.19118044, 0.07023671, 0.011164361, 0.13253498, 0
741, 1819595827, 0.93703425, 0.050061718, -0.2879954, 0.19110043, 0.030338755, 0.012132702, 0.13004112, 0
742, 1819612494, 0.93706256, 0.050032847, -0.287924, 0.19107631, 1.379075E-4, 0.0012901447, 0.12623692, 0
743, 1819629161, 0.9370986, 0.049982402, -0.28789285, 0.19096029, -0.03157523, -0.004082073, 0.12394142, 0
744, 1819645828, 0.9371015, 0.049980726, -0.28789437, 0.19094464, -0.03708147, -0.013574249, 0.12691975, 0
745, 1819662495, 0.93709683, 0.050006308, -0.2878998, 0.19095217, 1.3388426E-4, 0.01404642, 0.12433052, 0
746, 1819679162, 0.9371061, 0.049998265, -0.28789955, 0.19090915, 0.012918602, -0.004053072, 0.13080406, 0
747, 1819695829, 0.93712837, 0.049961857, -0.28788605, 0.19082968, 0.017033027, -0.0014199219, 0.11682415, 0
748, 1819712496, 0.9371497, 0.049903195, -0.28785494, 0.19078743, 0.030493649, -0.0019074875, 0.11833477, 0
749, 1819729163, 0.9371669, 0.049871266, -0.28780642, 0.19078423, 0.024345255, -3.7768102E-4, 0.12545776, 0
750, 1819745830, 0.9371624, 0.04985397, -0.28776178, 0.19087845, -0.012337245, -0.005487243, 0.13428593, 0
751, 1819762497, 0.9371596, 0.049845178, -0.2877825, 0.19086279, -0.0278144, -0.017653333, 0.13646698, 0
752, 1819779164, 0.9371464, 0.049874093, -0.28781834, 0.19086595, -0.012612389, -0.021031313, 0.12326622, 0
753, 1819795831, 0.9371329, 0.049917784, -0.28785628, 0.19086361, -0.0049959617, 0.004894291, 0.13994598, 0
754, 1819812498, 0.9371192, 0.04995898, -0.28789034, 0.19086936, 0.02132403, 0.021586211, 0.117399216, 0
755, 1819829165, 0.93712044, 0.049959812, -0.28789693, 0.19085242, 0.020960374, 0.008373103, 0.12005997, 0
756, 1819845832, 0.9371277, 0.049932186, -0.28787085, 0.19086324, 0.025785573, 5.385265E-4, 0.11130905, 0
757, 1819862499, 0.93715155, 0.049872547, -0.28783938, 0.19080965, 0.01227779, 0.004421617, 0.13862324, 0
758, 1819879166, 0.93715936, 0.04982709, -0.2878456, 0.19077376, -0.02296685, -0.023243168, 0.113511086, 0
759, 1819895833, 0.937154, 0.049824145, -0.2878401, 0.19080903, -0.03189664, -0.015616878, 0.13064384, 0
760, 1819912500, 0.93713814, 0.049838893, -0.2878382, 0.19088586, -0.0069237608, 0.010698699, 0.13614273, 0
761, 1819929167, 0.93714565, 0.049814824, -0.287847, 0.19084214, -0.012012927, 0.016285153, 0.12953281, 0
762, 1819945834, 0.93714285, 0.04981739, -0.287803, 0.19092162, 0.007137439, 0.016815942, 0.1390562, 0
763, 1819962501, 0.93716174, 0.04977441, -0.28776136, 0.19090287, 0.018387293, 0.0042110677, 0.12049866, 0
764, 1819979168, 0.937174, 0.049732078, -0.28770772, 0.1909344, 0.001993065, -0.00461029, 0.1223259, 0
765, 1819995835, 0.93719697, 0.049668573, -0.28766713, 0.19089955, -0.008024339, 0.0019424673, 0.1474905, 0
766, 1820012502, 0.93720657, 0.049640384, -0.2876763, 0.190846, -0.021073248, -0.013621466, 0.13436604, 0
767, 1820029169, 0.93717194, 0.049690235, -0.28771922, 0.19093849, -0.040088836, -0.021310061, 0.11280537, 0
768, 1820045836, 0.9371648, 0.049724303, -0.28774837, 0.19092025, 0.007852681, 0.0032526723, 0.12201977, 0
769, 1820062503, 0.937171, 0.049738366, -0.2877274, 0.19091767, 0.048612054, 0.036565825, 0.13618755, 0
770, 1820079170, 0.937192, 0.049699873, -0.2876284, 0.19097391, 0.040737696, 0.028472506, 0.11782551, 0
771, 1820095837, 0.9372351, 0.04960597, -0.28751454, 0.19095854, 0.012890216, -0.0017119136, 0.13140297, 0
772, 1820112504, 0.9372964, 0.049486388, -0.28738037, 0.19089067, 0.006854919, -0.0027153192, 0.1278696, 0
773, 1820129171, 0.93732345, 0.049413715, -0.28729627, 0.19090316, -0.03957878, -0.02373392, 0.12376213, 0
774, 1820145838, 0.93732965, 0.049395237, -0.2872982, 0.19087449, -0.057261784, -0.017688004, 0.10713482, 0
775, 1820162505, 0.9373094, 0.04943174, -0.28734356, 0.19089648, -0.043030713, -0.018285874, 0.106220245, 0
776, 1820179172, 0.9372833, 0.049505092, -0.28741407, 0.19089961, 0.012331881, 0.0036726252, 0.1396637, 0
777, 1820195839, 0.9372575, 0.04956883, -0.28748268, 0.19090527, 0.01664881, 0.008320745, 0.11855602, 0
778, 1820212506, 0.93728566, 0.049516067, -0.28752792, 0.19071321, 0.04041561, 0.020796288, 0.13116837, 0
779, 1820229173, 0.93730676, 0.049480207, -0.28750095, 0.19065966, 0.042248644, 0.016304124, 0.12837505, 0
780, 1820245840, 0.93733835, 0.049443297, -0.28738984, 0.19068111, 0.036890812, 0.018243182, 0.12991333, 0
781, 1820262507, 0.93737817, 0.04939799, -0.28727135, 0.19067557, -0.017396014, 0.0044929176, 0.13300514, 0
782, 1820279174, 0.93739474, 0.04938071, -0.2872054, 0.19069794, -0.052521523, -0.012022762, 0.14244652, 0
783, 1820295841, 0.9373803, 0.049413588, -0.28722128, 0.19073704, -0.04257743, -0.021285977, 0.1249218, 0
784, 1820312508, 0.9373556, 0.049473368, -0.28728145, 0.19075166, 0.00581916, -0.005252415, 0.11744118, 0
785, 1820329175, 0.93734545, 0.049509175, -0.287271, 0.1908082, 0.033509955, 0.019605132, 0.12240887, 0
786, 1820345842, 0.937371, 0.04948049, -0.28721052, 0.19078146, 0.04152513, 0.022830619, 0.122177124, 0
787, 1820362509, 0.9374041, 0.049423788, -0.28712666, 0.19075927, 0.0038895723, 0.011497898, 0.13877583, 0
788, 1820379176, 0.93743557, 0.04938402, -0.28703004, 0.19076031, 0.012653292, 0.0053088795, 0.11557579, 0
789, 1820395843, 0.93743336, 0.049396515, -0.28698418, 0.1908372, -0.036255814, -0.013356045, 0.14853764, 0
790, 1820412510, 0.93742114, 0.049419, -0.2870363, 0.19081302, -0.034175802, -0.010085715, 0.13672638, 0
791, 1820429177, 0.93740386, 0.04946405, -0.28712136, 0.19075811, -0.02365594, -0.018840801, 0.09897804, 0
792, 1820445844, 0.93739295, 0.049526557, -0.2871636, 0.19073188, 0.021014689, 0.01048625, 0.106036186, 0
793, 1820462511, 0.9373855, 0.04956806, -0.28716955, 0.19074883, 0.033655465, 0.03434025, 0.12913227, 0
794, 1820479178, 0.93738, 0.04960048, -0.28713056, 0.19082609, 0.0065462473, 0.017939094, 0.118029594, 0
795, 1820495845, 0.9374076, 0.04955654, -0.28709546, 0.1907549, 0.011124687, 0.0035498329, 0.12697506, 0
796, 1820512512, 0.93740714, 0.049564153, -0.28707424, 0.19078697, -0.013591823, 0.011373233, 0.13140011, 0
797, 1820529179, 0.9373856, 0.049603947, -0.2871069, 0.19083327, -0.016677419, -0.027103154, 0.14229393, 0
798, 1820545846, 0.9373505, 0.04966508, -0.28717896, 0.19088157, -0.019794308, -0.031191569, 0.1349001, 0
799, 1820562513, 0.93733054, 0.04972699, -0.2872512, 0.19085468, 0.005032841, -0.017969435, 0.120391846, 0
800, 1820579180, 0.9373182, 0.049771335, -0.2872754, 0.1908674, 0.03419212, 0.038232617, 0.13189793, 0
801, 1820595847, 0.9373334, 0.049728334, -0.28725007, 0.19084191, 0.043786187, 0.02452317, 0.12851334, 0
802, 1820612514, 0.9373545, 0.049600847, -0.28721002, 0.19083203, 0.0326995, 0.04199448, 0.1380949, 0
803, 1820629181, 0.9373915, 0.049433246, -0.2871584, 0.19077122, 0.019756533, 0.01880705, 0.14262295, 0
804, 1820645848, 0.9374488, 0.049266454, -0.28709692, 0.19062583, -0.0015726371, 0.0111825485, 0.1233778, 0
805, 1820662515, 0.9374576, 0.04919186, -0.28704002, 0.19068699, -0.027769025, -0.021275276, 0.13043499, 0
806, 1820679182, 0.9374502, 0.049167782, -0.2870167, 0.19076462, -0.041009262, -0.04411805, 0.11634445, 0
807, 1820695849, 0.93746006, 0.0491346, -0.28699997, 0.19074975, 0.0041638226, 0.0076236357, 0.112971306, 0
808, 1820712516, 0.937479, 0.049108148, -0.28697935, 0.19069485, -0.0035064712, 0.005801586, 0.11564827, 0
809, 1820729183, 0.9374782, 0.049123604, -0.2869449, 0.19074686, 0.009463762, 0.007850083, 0.12517929, 0
810, 1820745850, 0.93746746, 0.049142357, -0.28691417, 0.1908403, -4.2847433E-4, 0.0051613054, 0.13105011, 0
811, 1820762517, 0.9374602, 0.049152065, -0.2869103, 0.1908796, -0.004876382, 0.002162041, 0.14876938, 0
812, 1820779184, 0.9374564, 0.049153235, -0.28692746, 0.1908724, 0.0076530837, 0.016619837, 0.14613342, 0
813, 1820795851, 0.93743944, 0.049162954, -0.2869261, 0.19095463, 0.006558988, 0.0070708883, 0.12888336, 0
814, 1820812518, 0.9374326, 0.049174916, -0.28693828, 0.19096746, -0.011228173, 0.008089046, 0.14833164, 0
815, 1820829185, 0.937424, 0.04920194, -0.2869497, 0.19098559, 4.794353E-4, 0.004017366, 0.11910343, 0
816, 1820845852, 0.93741256, 0.04924921, -0.2869409, 0.19104202, -0.0038891255, 0.01218249, 0.11192322, 0
817, 1820862519, 0.93743426, 0.04921389, -0.28691655, 0.19098195, 0.011853339, 0.024910687, 0.13890839, 0
818, 1820879186, 0.9374377, 0.049196597, -0.28687894, 0.19102599, 0.001370805, 0.005771859, 0.12289524, 0
819, 1820895853, 0.9374528, 0.049172413, -0.28683677, 0.19102126, -0.014134736, -0.020070905, 0.12063122, 0
820, 1820912520, 0.9374373, 0.049202055, -0.28683075, 0.19109868, -0.011225491, -0.017195635, 0.14630985, 0
821, 1820929187, 0.93741286, 0.049236, -0.2868984, 0.19110835, -0.021946738, 0.0033204246, 0.13099098, 0
822, 1820945854, 0.9373723, 0.049314465, -0.28700033, 0.19113393, -0.012056289, 5.0698326E-4, 0.103975296, 0
823, 1820962521, 0.9373387, 0.049386814, -0.2870832, 0.19115509, 0.013697544, -0.0023508533, 0.10279369, 0
824, 1820979188, 0.93730354, 0.04947334, -0.28711882, 0.19125168, 0.050093725, 0.023323912, 0.1380043, 0
825, 1820995855, 0.9373062, 0.049479645, -0.28712636, 0.1912258, 0.028351724, 0.020864151, 0.14013672, 0
826, 1821012522, 0.93731385, 0.049459435, -0.2870898, 0.19124812, 0.033146746, 0.028561575, 0.117533684, 0
827, 1821029189, 0.93734205, 0.049415104, -0.28700802, 0.19124454, 0.017347064, 0.029047381, 0.15426731, 0
828, 1821045856, 0.9373664, 0.049357627, -0.28698874, 0.19116898, -0.03830297, 0.009511035, 0.13354778, 0
829, 1821062523, 0.9373468, 0.0493881, -0.2870081, 0.19122809, -0.04012214, -0.0043745954, 0.12728977, 0
830, 1821079190, 0.9373354, 0.04939769, -0.28705025, 0.19121835, -0.026395539, -1.6573486E-4, 0.10511589, 0
831, 1821095857, 0.9373201, 0.049437806, -0.287096, 0.19121419, 0.008420403, 8.1322395E-4, 0.13488674, 0
832, 1821112524, 0.9373186, 0.049454845, -0.2871236, 0.19117549, 0.01779543, -0.014180221, 0.12378311, 0
833, 1821129191, 0.93732417, 0.049437758, -0.2871231, 0.19115368, 0.0043336926, 0.02064483, 0.12813473, 0
834, 1821145858, 0.9373388, 0.049390472, -0.28712457, 0.19109192, 0.024620175, 0.0059794467, 0.14563847, 0
835, 1821162525, 0.9373533, 0.04935998, -0.28711075, 0.1910497, 0.012714758, 0.01490809, 0.12976646, 0
836, 1821179192, 0.93735915, 0.04935224, -0.2870986, 0.19104157, -0.025708236, 0.0044137663, 0.11716461, 0
837, 1821195859, 0.93736243, 0.04934831, -0.28710073, 0.19102262, -0.015772862, -0.00942258, 0.12016487, 0
838, 1821212526, 0.9373492, 0.04938112, -0.28714737, 0.19100888, -0.036981784, -0.012231328, 0.13304806, 0
839, 1821229193, 0.93733907, 0.049409535, -0.28719738, 0.19097607, -0.019758992, 0.012616385, 0.13693619, 0
840, 1821245860, 0.9373196, 0.049444694, -0.28722307, 0.1910238, 0.015067902, 0.009345161, 0.12931633, 0
841, 1821262527, 0.9373124, 0.049431037, -0.28723451, 0.1910456, 0.024370512, 0.034354024, 0.1499939, 0
842, 1821279194, 0.93732405, 0.04939958, -0.2871938, 0.19105813, 0.0315379, 0.0104497615, 0.12389469, 0
843, 1821295861, 0.9373454, 0.049356025, -0.2871358, 0.19105116, 0.018746255, 0.01117995, 0.14874935, 0
844, 1821312528, 0.9373546, 0.04933568, -0.28712535, 0.19102718, -0.0046665035, -0.0065558306, 0.12307358, 0
845, 1821329195, 0.937362, 0.04932309, -0.2870947, 0.19104001, -0.02455871, 0.0052788453, 0.11797333, 0
846, 1821345862, 0.93735594, 0.049333643, -0.2870729, 0.19109961, -0.03239552, 0.012533377, 0.12934017, 0
847, 1821362529, 0.9373469, 0.049347878, -0.28708968, 0.19111586, -0.040771, -0.002433106, 0.11117458, 0
848, 1821379196, 0.93733066, 0.04936061, -0.28710216, 0.19117278, -0.0042769206, 0.015876656, 0.117827415, 0
849, 1821395863, 0.9373206, 0.049370524, -0.28712752, 0.19118224, 0.019038163, 0.00819717, 0.13151264, 0
850, 1821412530, 0.9373006, 0.049397424, -0.28710744, 0.1913031, 0.029129326, 0.02851229, 0.13560963, 0
851, 1821429197, 0.93730354, 0.04937161, -0.28705636, 0.1913722, 0.00981736, 0.0067491974, 0.15382099, 0
852, 1821445864, 0.937287, 0.04936824, -0.28704417, 0.1914729, -0.037109185, -0.019384803, 0.11561775, 0
853, 1821462531, 0.93727547, 0.049382508, -0.28707367, 0.19148119, -0.041513734, -0.024687117, 0.11379337, 0
854, 1821479198, 0.9372449, 0.049430877, -0.28712797, 0.19153652, -0.016520066, -4.4752882E-4, 0.13178921, 0
855, 1821495865, 0.93722486, 0.04946769, -0.28718698, 0.19153666, -0.0020654832, 0.013524266, 0.1290369, 0
856, 1821512532, 0.9372136, 0.049490623, -0.28720215, 0.1915632, 0.030832943, 0.028733065, 0.12632084, 0
857, 1821529199, 0.93719625, 0.049518086, -0.28716716, 0.19169286, 0.041113645, 0.025998076, 0.12825489, 0
858, 1821545866, 0.93720764, 0.04948622, -0.28712788, 0.19170475, 0.028102955, -0.0014835394, 0.14283848, 0
859, 1821562533, 0.9372545, 0.049404074, -0.28710803, 0.19152652, 0.011034387, 0.021877142, 0.14006901, 0
860, 1821579200, 0.93725747, 0.04939069, -0.2870911, 0.19154085, -0.024702428, -0.013704585, 0.11481762, 0
861, 1821595867, 0.93723464, 0.049431928, -0.28708234, 0.19165458, -0.019785143, -0.005703408, 0.13718033, 0
862, 1821612534, 0.93722785, 0.0494505, -0.287088, 0.19167444, -0.028906707, -0.007907916, 0.1242609, 0
863, 1821629201, 0.93723166, 0.049457368, -0.287063, 0.19169131, 0.013019183, 0.038440958, 0.13759136, 0
864, 1821645868, 0.93723035, 0.049454957, -0.28703836, 0.19173564, -0.0056215744, 0.0072139367, 0.12672138, 0
865, 1821662535, 0.93723434, 0.049445238, -0.2870431, 0.19171154, -0.015417923, 0.00659081, 0.12702274, 0
866, 1821679202, 0.93721473, 0.049462985, -0.28706706, 0.19176687, -0.004065254, 0.00892613, 0.12236309, 0
867, 1821695869, 0.93718904, 0.049488757, -0.2871197, 0.19180693, -0.021769715, -0.010402936, 0.13249779, 0
868, 1821712536, 0.9371624, 0.04953126, -0.2871871, 0.19182523, 0.004394265, 0.010084933, 0.12607193, 0
869, 1821729203, 0.9371424, 0.049574293, -0.2872364, 0.19183806, 0.022960816, 0.016144397, 0.13155174, 0
870, 1821745870, 0.93716407, 0.049555894, -0.28724632, 0.19172181, 0.007830553, 0.0023682874, 0.13745117, 0
871, 1821762537, 0.937177, 0.0495397, -0.28721488, 0.19171007, 0.015822705, 0.023293793, 0.1384983, 0
872, 1821779204, 0.9371857, 0.04951671, -0.2871967, 0.19170089, -0.0015610144, 0.013311957, 0.13314915, 0
873, 1821795871, 0.9371896, 0.04950137, -0.28716046, 0.19174013, -0.0046935487, 0.013207744, 0.12286854, 0
874, 1821812538, 0.9371876, 0.049489472, -0.28714776, 0.1917722, -0.025982711, 0.0074763964, 0.13200855, 0
875, 1821829205, 0.93714887, 0.049535856, -0.28718168, 0.19189815, -0.014108585, -0.009199961, 0.12590027, 0
876, 1821845872, 0.93712705, 0.049571276, -0.2872329, 0.19191894, -0.019657964, -0.004462101, 0.13588142, 0
877, 1821862539, 0.9371176, 0.049601473, -0.28726318, 0.19191179, 0.011308415, 0.021018796, 0.1274271, 0
878, 1821879206, 0.9371193, 0.04961022, -0.28726822, 0.19189338, 0.017406294, 0.03421556, 0.13206387, 0
879, 1821895873, 0.9371437, 0.04958075, -0.28722718, 0.19184405, 0.028137151, 0.015999477, 0.14968204, 0
880, 1821912540, 0.937184, 0.049501926, -0.28714508, 0.1917905, 0.023242218, 0.022015328, 0.12047863, 0
881, 1821929207, 0.9372222, 0.04942952, -0.28704607, 0.19177094, -0.00768594, 0.007914705, 0.14096642, 0
882, 1821945874, 0.93722343, 0.04940908, -0.2870051, 0.19183095, -0.036274813, -0.0047581997, 0.114587784, 0
883, 1821962541, 0.9372203, 0.049402554, -0.2870254, 0.19181754, -0.03109624, -0.029596915, 0.11789036, 0
884, 1821979208, 0.9372084, 0.04942931, -0.2870605, 0.19181558, -0.0063616256, -0.0070124674, 0.14530659, 0
885, 1821995875, 0.937205, 0.04945545, -0.28707314, 0.19180684, 0.008576639, 0.02469156, 0.14194489, 0
886, 1822012542, 0.9372063, 0.04946165, -0.2870625, 0.19181496, 0.007504224, 0.03421324, 0.14266014, 0
887, 1822029209, 0.9372279, 0.04940979, -0.28702915, 0.19177343, 0.020611918, 0.01789168, 0.12480259, 0
888, 1822045876, 0.93725574, 0.049351, -0.2869621, 0.19175234, 0.009219462, 0.019767234, 0.12341213, 0
889, 1822062543, 0.93728787, 0.049296156, -0.28688225, 0.19172896, 0.008170516, 0.012279159, 0.12218857, 0
890, 1822079210, 0.9373086, 0.049254436, -0.28683308, 0.19171196, -0.022010885, 0.007126487, 0.12384033, 0
891, 1822095877, 0.9373331, 0.04919695, -0.28682214, 0.19162335, -0.038932826, -0.011573864, 0.1322546, 0
892, 1822112544, 0.93732613, 0.049216278, -0.2868257, 0.19164714, -0.019813754, 0.007915208, 0.11614227, 0
893, 1822129211, 0.937388, 0.04911637, -0.28683022, 0.19136362, 0.015954131, 0.010674476, 0.12784958, 0
894, 1822145878, 0.9374113, 0.049059264, -0.28678438, 0.19133192, 0.01191637, 0.02776612, 0.11722469, 0
895, 1822162545, 0.93743837, 0.048982292, -0.28669617, 0.1913514, 0.02479295, 0.028678613, 0.14827251, 0
896, 1822179212, 0.93745583, 0.048919138, -0.28662708, 0.19138527, -0.0078339055, 0.01848156, 0.12415695, 0
897, 1822195879, 0.9374646, 0.048868246, -0.2865653, 0.1914479, -0.017140761, 0.015210476, 0.124004364, 0
898, 1822212546, 0.9374785, 0.048802737, -0.28654376, 0.19142865, -0.04395449, -0.024469193, 0.123366356, 0
899, 1822229213, 0.9374707, 0.048786193, -0.28657994, 0.19141747, -0.037889022, -0.009152129, 0.13999176, 0
900, 1822245880, 0.9374377, 0.048847105, -0.28665844, 0.19144534, -0.050059974, -0.023325365, 0.11607075, 0
901, 1822262547, 0.9373913, 0.048936866, -0.28677487, 0.19147629, -0.035011962, 0.011971689, 0.14488316, 0
902, 1822279214, 0.9373423, 0.049026135, -0.2869057, 0.19149737, 0.032714475, 0.0260936, 0.12121773, 0
903, 1822295881, 0.93732464, 0.049071435, -0.28696415, 0.19148427, 0.029367367, 0.024868079, 0.10426998, 0
904, 1822312548, 0.9373151, 0.0491015, -0.28695956, 0.19153056, 0.03316977, 0.020812158, 0.13917065, 0
905, 1822329215, 0.93729484, 0.049155824, -0.28699547, 0.19156112, -0.040074307, -2.3848833E-4, 0.112612724, 0
906, 1822345882, 0.93727994, 0.049195718, -0.28705424, 0.19153593, -0.037379414, 0.014417983, 0.12593842, 0
907, 1822362549, 0.9372332, 0.04935721, -0.28716296, 0.19156042, -0.022009768, -0.046935346, 0.17716217, 0
908, 1822379216, 0.9371597, 0.049815185, -0.28736863, 0.19149253, 0.12675218, 0.005399905, 0.22904491, 0
909, 1822395883, 0.9370873, 0.050356157, -0.287757, 0.19112222, 0.26754054, 0.10009164, 0.29312897, 0
910, 1822412550, 0.93701535, 0.050947897, -0.2881259, 0.19076222, 0.1561466, 0.10945877, 0.14619255, 0
911, 1822429217, 0.9369689, 0.051458627, -0.28840864, 0.19042568, 0.06754003, 0.047687214, 0.11085987, 0
912, 1822445884, 0.93695956, 0.05184212, -0.2885126, 0.19020967, -0.16791321, -0.047115862, -0.014312744, 0
913, 1822462551, 0.93697095, 0.052222233, -0.28847253, 0.19011052, -0.1266592, -0.056185484, 0.11554909, 0
914, 1822479218, 0.9369093, 0.052674327, -0.28873104, 0.18989772, -0.07878787, -0.044350445, 0.111281395, 0
915, 1822495885, 0.93689173, 0.053139985, -0.2886861, 0.18992318, -0.13637799, -0.004500489, 0.1355238, 0
916, 1822512552, 0.93690556, 0.053341642, -0.28861526, 0.1899052, 0.019333424, 0.0067988173, -0.03354168, 0
917, 1822529219, 0.9369841, 0.053226467, -0.28842145, 0.18984465, -0.07651564, 0.036429763, 0.10708332, 0
918, 1822545886, 0.9370498, 0.05310627, -0.2882189, 0.18986192, 0.06461201, 0.057745636, 0.17988014, 0
919, 1822562553, 0.9371099, 0.05291932, -0.28802297, 0.18991454, -0.015209833, 0.009456665, 0.07163525, 0
920, 1822579220, 0.937195, 0.052550443, -0.2877451, 0.190019, -0.054539397, 0.018072642, 0.109687805, 0
921, 1822595887, 0.93729436, 0.052024495, -0.28745192, 0.19011657, -0.061050776, -0.0059908177, 0.08531666, 0
922, 1822612554, 0.9373793, 0.051490758, -0.287173, 0.19026446, -0.061403256, -0.017154172, 0.14406109, 0
923, 1822629221, 0.937421, 0.05109524, -0.2869977, 0.19043, 0.01635735, 0.018280901, 0.17437267, 0
924, 1822645888, 0.9374132, 0.050939422, -0.28690472, 0.19065022, -0.016045772, -0.02829649, 0.16098976, 0
925, 1822662555, 0.9374155, 0.05084155, -0.28686452, 0.19072574, 0.03196079, 6.4924924E-4, 0.12174702, 0
926, 1822679222, 0.9374376, 0.05072948, -0.28679425, 0.19075222, 0.073304206, 0.05468781, 0.18444347, 0
927, 1822695889, 0.9374518, 0.050646484, -0.28673357, 0.19079608, 0.020773293, -0.0132348165, 0.12616158, 0
928, 1822712556, 0.93745923, 0.05058714, -0.28667894, 0.19085678, -0.0416237, -0.0066761645, 0.11888504, 0
929, 1822729223, 0.93745583, 0.05053126, -0.28670838, 0.19084486, -0.013763034, -0.0089375, 0.13475037, 0
930, 1822745890, 0.9374282, 0.050537694, -0.28675285, 0.19091196, 6.633864E-4, 9.2679646E-4, 0.13085556, 0
931, 1822762557, 0.9374054, 0.05054493, -0.2868016, 0.19094846, -0.008326082, 0.02613308, 0.14171505, 0
932, 1822779224, 0.93738043, 0.050542958, -0.2868477, 0.19100241, 0.02644069, 0.017021071, 0.13014698, 0
933, 1822795891, 0.937373, 0.050506238, -0.28687635, 0.19100556, 2.3379455E-4, 0.025371179, 0.13045883, 0
934, 1822812558, 0.9373476, 0.05049925, -0.28690183, 0.19109361, 0.0014179662, 0.0090774195, 0.12643528, 0
935, 1822829225, 0.93732226, 0.05048512, -0.28695902, 0.19113596, -0.024335643, 0.0057633934, 0.11976528, 0
936, 1822845892, 0.93729043, 0.050476015, -0.28705323, 0.19115296, -0.012715205, 0.008110391, 0.12849331, 0
937, 1822862559, 0.93723834, 0.05050323, -0.28717813, 0.19121335, -0.005235791, 0.0069893617, 0.13484669, 0
938, 1822879226, 0.937174, 0.050573755, -0.28733084, 0.19128057, -0.015796555, -0.0015797896, 0.12700844, 0
939, 1822895893, 0.937112, 0.050651684, -0.2875155, 0.19128647, -0.028337419, 0.004454222, 0.13087368, 0
940, 1822912560, 0.93703383, 0.050748054, -0.28773096, 0.19132008, -0.014589137, 0.0024351177, 0.124032974, 0
941, 1822929227, 0.93693894, 0.050876644, -0.28797987, 0.19137612, -0.020861581, 0.009726557, 0.12976265, 0
942, 1822945894, 0.9368249, 0.051041007, -0.2882158, 0.1915348, -1.5757664E-4, 0.0083871, 0.14080715, 0
943, 1822962561, 0.936727, 0.05117781, -0.28846848, 0.19159718, 0.006404987, 0.0036490166, 0.13693905, 0
944, 1822979228, 0.93661463, 0.05137151, -0.28874862, 0.19167225, -0.013371215, -0.01170515, 0.13327312, 0
945, 1822995895, 0.9364918, 0.05158665, -0.28908163, 0.19171244, 0.0146850245, -0.0133247245, 0.15505886, 0
946, 1823012562, 0.93632746, 0.051868193, -0.28950024, 0.19180824, 0.022395328, 0.0036185072, 0.15415001, 0
947, 1823029229, 0.93614906, 0.052219473, -0.28995416, 0.19189751, -0.0042986013, -0.012567519, 0.14943027, 0
948, 1823045896, 0.93597823, 0.052582987, -0.29040268, 0.19195321, 0.0026490756, 0.0056017376, 0.12740993, 0
949, 1823062563, 0.93583477, 0.052869484, -0.29078904, 0.19198905, 0.024853747, 0.04346148, 0.1719284, 0
950, 1823079230, 0.9356432, 0.053247835, -0.2913165, 0.19201937, -0.009292551, -0.023764623, 0.18734264, 0
951, 1823095897, 0.93538225, 0.053774405, -0.29205492, 0.19202138, -0.07091686, -0.090733826, 0.19911194, 0
952, 1823112564, 0.9349661, 0.05462742, -0.29314858, 0.19214153, -0.09079879, -0.18192348, 0.18762112, 0
953, 1823129231, 0.9345092, 0.05576551, -0.2943742, 0.19216332, 0.10666798, -0.0430572, 0.29887486, 0
954, 1823145898, 0.93400246, 0.05728119, -0.2955975, 0.19230305, 0.1337135, -0.07441319, 0.3034954, 0
955, 1823162565, 0.9333597, 0.05942609, -0.29712445, 0.1924197, -0.11049162, -0.20929512, 0.3526268, 0
956, 1823179232, 0.932366, 0.06269937, -0.2994841, 0.19254053, -0.4895495, -0.39729005, 0.3938675, 0
957, 1823195899, 0.930789, 0.06737269, -0.30323002, 0.19272862, -0.559419, -0.42309123, 0.30314732, 0
958, 1823212566, 0.928597, 0.07323616, -0.30839553, 0.19296736, -0.583738, -0.4070454, 0.35092163, 0
959, 1823229233, 0.9257615, 0.079791605, -0.31509134, 0.19317466, -0.27784985, -0.17515285, 0.6286211, 0
960, 1823245900, 0.92222, 0.08649022, -0.32344913, 0.19341758, 0.21724342, 0.17340146, 1.0197792, 0
961, 1823262567, 0.9184243, 0.09250555, -0.33225068, 0.19377609, 0.028578367, 0.24310654, 1.361516, 0
962, 1823279234, 0.91446584, 0.09708076, -0.34151557, 0.19415163, -0.37002748, 0.04991726, 1.3993578, 0
963, 1823295901, 0.91077954, 0.0995316, -0.3502406, 0.19469413, 0.012752979, 0.17174053, 1.3835325, 0
964, 1823312568, 0.90859413, 0.09884864, -0.3551245, 0.19639792, 1.2890942, 0.7992639, 1.9905338, 0
965, 1823329235, 0.9079185, 0.09686845, -0.35605234, 0.19881487, 0.6715943, 0.41101485, 2.4284325, 0
966, 1823345902, 0.9084438, 0.092819884, -0.35420972, 0.20161848, -0.15310727, -0.085450344, 1.9283876, 0
967, 1823362569, 0.9094736, 0.08759493, -0.3511646, 0.20461789, -0.3761207, -0.02710888, 1.5858631, 0
968, 1823379236, 0.91033375, 0.08184248, -0.348272, 0.20808911, -0.15795325, 0.014585505, 1.7104282, 0
969, 1823395903, 0.910803, 0.07596057, -0.34598076, 0.21204971, 0.20851547, 0.20152883, 1.6231441, 0
970, 1823412570, 0.9109321, 0.07007712, -0.34404922, 0.21661484, 0.34486058, 0.21097617, 1.3952236, 0
971, 1823429237, 0.9110096, 0.06405051, -0.34183067, 0.2216095, 0.2626892, 0.22474624, 1.1646957, 0
972, 1823445904, 0.91096777, 0.057784367, -0.33952796, 0.22697964, 0.088794544, 0.22998264, 1.0294142, 0
973, 1823462571, 0.9108284, 0.051244963, -0.33707097, 0.232699, 0.10762909, 0.21294358, 0.8856344, 0
974, 1823479238, 0.9107104, 0.0442822, -0.3341694, 0.23869772, 0.19884965, 0.32118198, 0.76284504, 0
975, 1823495905, 0.91060853, 0.03696627, -0.33074287, 0.24502015, 0.31592393, 0.51609, 0.67468834, 0
976, 1823512572, 0.9103666, 0.029337298, -0.32711518, 0.25172946, 0.34467307, 0.6579045, 0.41544533, 0
977, 1823529239, 0.90993255, 0.021698277, -0.32335043, 0.25883698, 0.30299863, 0.58972687, -0.019170761, 0
978, 1823545906, 0.9092715, 0.014185384, -0.31966975, 0.2661495, 0.37474382, 0.6112557, -0.13901329, 0
979, 1823562573, 0.9083438, 0.006734993, -0.31605652, 0.27381477, 0.4485639, 0.77250266, -0.08714676, 0
980, 1823579240, 0.9070844, -6.174871E-4, -0.31264833, 0.2818663, 0.33355823, 0.77676594, 0.09504318, 0
981, 1823595907, 0.90560126, -0.0081724785, -0.30924487, 0.29015037, 0.28188494, 0.7362187, 0.08740997, 0
982, 1823612574, 0.9040588, -0.016291631, -0.30541956, 0.29854876, 0.3737074, 0.77033466, -0.07376385, 0
983, 1823629241, 0.9025305, -0.025019012, -0.3008637, 0.30707324, 0.43165603, 0.8218958, -0.13711357, 0
984, 1823645908, 0.9008732, -0.034149427, -0.29612592, 0.31554884, 0.2199392, 0.7006234, -0.39138985, 0
985, 1823662575, 0.89892447, -0.043324206, -0.2916388, 0.32404467, -0.010123125, 0.48564994, -0.6466923, 0
986, 1823679242, 0.89650065, -0.052090846, -0.2880287, 0.33258525, -0.11191696, 0.33515662, -0.6897774, 0
987, 1823695909, 0.8937598, -0.060335457, -0.28501463, 0.34105706, -0.011431123, 0.4042082, -0.62187576, 0
988, 1823712576, 0.89086425, -0.068412855, -0.28222415, 0.34932852, 0.03769233, 0.5073091, -0.5654602, 0
989, 1823729243, 0.8880235, -0.07661535, -0.27906242, 0.35730764, -0.068228, 0.46212807, -0.57651615, 0
990, 1823745910, 0.88511515, -0.084720425, -0.27588013, 0.3650807, -0.12979598, 0.3495385, -0.574975, 0
991, 1823762577, 0.88223463, -0.09265489, -0.27244502, 0.37262693, -0.09127956, 0.15622461, -0.7898636, 0
992, 1823779244, 0.8794754, -0.100386195, -0.26871538, 0.37978625, -0.12739992, 0.05963834, -0.8201952, 0
993, 1823795911, 0.8767654, -0.10763907, -0.26494718, 0.3866513, -0.19612211, 0.10446347, -0.8883791, 0
994, 1823812578, 0.8740849, -0.114557415, -0.2612177, 0.39321452, -0.33226317, 0.037390757, -0.73193264, 0
995, 1823829245, 0.8714018, -0.120993726, -0.257741, 0.3994865, -0.36027652, -0.03095822, -0.64787006, 0
996, 1823845912, 0.8686714, -0.12666121, -0.2548446, 0.4054891, -0.3838266, -0.16149604, -0.60862255, 0
997, 1823862579, 0.86597914, -0.13182263, -0.25233418, 0.4111331, -0.36403185, -0.14162664, -0.5647869, 0
998, 1823879246, 0.86339796, -0.13656813, -0.24990508, 0.416462, -0.30845323, -0.23451829, -0.6018324, 0
999, 1823895913, 0.8611253, -0.1410617, -0.24720205, 0.4212554, -0.3106553, -0.33104905, -0.598505, 0
1000, 1823912580, 0.859199, -0.14534202, -0.24411772, 0.42551088, -0.17797498, -0.29242805, -0.6036911, 0
1001, 1823929247, 0.8576127, -0.1495752, -0.24055071, 0.42925888, -0.23061195, -0.34324673, -0.61667347, 0
1002, 1823945914, 0.8562659, -0.15367222, -0.2368498, 0.43254584, -0.27794975, -0.4983646, -0.5536804, 0
1003, 1823962581, 0.85510975, -0.15731275, -0.23349117, 0.43534157, -0.28074032, -0.6658745, -0.5978842, 0
1004, 1823979248, 0.8540906, -0.16023563, -0.23073675, 0.43773776, -0.31516343, -0.74576896, -0.52969074, 0
1005, 1823995915, 0.8532362, -0.162537, -0.22856382, 0.4396914, -0.27259675, -0.78063846, -0.5707674, 0
1006, 1824012582, 0.8526589, -0.16433112, -0.2267319, 0.44109085, -0.19422258, -0.829074, -0.81404114, 0
1007, 1824029249, 0.85241175, -0.16567202, -0.22512537, 0.44188902, -0.16992763, -0.81943697, -0.9487314, 0
1008, 1824045916, 0.85251546, -0.16653992, -0.22362962, 0.44212195, -0.1897739, -0.8563587, -0.963707, 0
1009, 1824062583, 0.85292035, -0.16690533, -0.22248873, 0.4417786, -0.21811177, -0.888638, -0.9624338, 0
1010, 1824079250, 0.8535356, -0.16657214, -0.2220793, 0.44092143, -0.3322975, -0.94761336, -0.89707756, 0
1011, 1824095917, 0.85432434, -0.16550289, -0.22241175, 0.43962726, -0.30595246, -0.8114602, -0.83555126, 0
1012, 1824112584, 0.8553493, -0.16388671, -0.22324225, 0.43781504, -0.24183911, -0.68386126, -0.8366995, 0
1013, 1824129251, 0.8566825, -0.16180964, -0.22415505, 0.4355081, -0.299156, -0.85532856, -0.9316158, 0
1014, 1824145918, 0.8583903, -0.15931804, -0.22514106, 0.43254536, -0.3092856, -0.87414676, -0.9284382, 0
1015, 1824162585, 0.8603764, -0.15625437, -0.22657911, 0.42895126, -0.32199714, -0.7794565, -0.83340263, 0
1016, 1824179252, 0.8625503, -0.15260273, -0.228567, 0.4248254, -0.4064078, -0.8283972, -0.7061987, 0
1017, 1824195919, 0.8648352, -0.14822188, -0.2312584, 0.4202502, -0.44892532, -0.8999521, -0.6861372, 0
1018, 1824212586, 0.867172, -0.1430606, -0.2348195, 0.4152182, -0.36527425, -0.8032729, -0.7623873, 0
1019, 1824229253, 0.8695774, -0.13713206, -0.23910496, 0.4097055, -0.32674477, -0.69338304, -0.7954178, 0
1020, 1824245920, 0.87217945, -0.13071932, -0.24357663, 0.4035913, -0.24901064, -0.5008426, -0.7783222, 0
1021, 1824262587, 0.87506396, -0.12407388, -0.24778503, 0.39682704, -0.22891761, -0.2599392, -0.7592554, 0
1022, 1824279254, 0.8782071, -0.11725745, -0.25150603, 0.3895481, -0.26175255, -0.060792617, -0.7374668, 0
1023, 1824295921, 0.88151383, -0.110326946, -0.25487566, 0.38183755, -0.32279092, 0.06548047, -0.772707, 0
1024, 1824312588, 0.88485587, -0.10309957, -0.2581658, 0.3738332, -0.3498227, 0.1422504, -0.741333, 0
1025, 1824329255, 0.8881417, -0.09527985, -0.26164737, 0.36560467, -0.25731215, 0.14236613, -0.90592, 0
1026, 1824345922, 0.89134514, -0.086914934, -0.26535228, 0.35712478, -0.18841472, 0.14335361, -0.97874546, 0
1027, 1824362589, 0.8943134, -0.07791092, -0.26964337, 0.34846228, -0.14279506, 0.19085543, -0.9458666, 0
1028, 1824379256, 0.89699, -0.0682595, -0.27458334, 0.33963758, -0.12131702, 0.19248053, -0.85441494, 0
1029, 1824395923, 0.8993448, -0.0582098, -0.2800538, 0.33069712, -0.108498774, 0.30429485, -0.70510864, 0
1030, 1824412590, 0.901531, -0.048417304, -0.28540766, 0.32162157, 0.018599631, 0.5041673, -0.5656929, 0
1031, 1824429257, 0.90376383, -0.039384708, -0.2900527, 0.31229717, 0.26073837, 0.6992239, -0.46463013, 0
1032, 1824445924, 0.90616894, -0.031154344, -0.293561, 0.3028357, 0.28664732, 0.7267748, -0.28690624, 0
1033, 1824462591, 0.908665, -0.02339315, -0.29608268, 0.29345545, 0.31875518, 0.65544003, -0.20872974, 0
1034, 1824479258, 0.91107553, -0.015733758, -0.29816386, 0.2842398, 0.31201828, 0.6028595, -0.1057024, 0
1035, 1824495925, 0.9130278, -0.007693107, -0.3007517, 0.27544478, 0.25951374, 0.6196554, 0.04614544, 0
1036, 1824512592, 0.91433036, 9.852778E-4, -0.30432963, 0.26717544, 0.2771639, 0.5568684, 0.11452198, 0
1037, 1824529259, 0.9150774, 0.010186534, -0.30866498, 0.25933716, 0.25354907, 0.49022856, 0.21146202, 0
1038, 1824545926, 0.91550004, 0.019314261, -0.3131808, 0.25180256, 0.26062593, 0.5689292, 0.5028229, 0
1039, 1824562593, 0.9158334, 0.027913412, -0.31719574, 0.24465719, 0.47858796, 0.7065797, 0.9229498, 0
1040, 1824579260, 0.91628855, 0.035595037, -0.32015917, 0.23800501, 0.704701, 0.8305287, 1.1239586, 0
1041, 1824595927, 0.9167583, 0.042770483, -0.32230312, 0.23204692, 0.5905387, 0.6910826, 1.1092215, 0
1042, 1824612594, 0.91700804, 0.04991967, -0.32430428, 0.2267849, 0.31778982, 0.40075338, 1.0426579, 0
1043, 1824629261, 0.91685814, 0.05712617, -0.32679728, 0.22206214, 0.16731934, 0.28514487, 1.1142607, 0
1044, 1824645928, 0.9163861, 0.06425669, -0.32961157, 0.21786244, 0.113895275, 0.31379533, 0.9689808, 0
1045, 1824662595, 0.9159473, 0.07092297, -0.33193892, 0.21407233, 0.2000727, 0.40292445, 1.1627502, 0
1046, 1824679262, 0.9155582, 0.07701588, -0.3337414, 0.2108044, 0.2100273, 0.45347634, 1.447257, 0
1047, 1824695929, 0.9152758, 0.082421556, -0.3348976, 0.20813584, 0.19871531, 0.34301734, 1.5584936, 0
1048, 1824712596, 0.9149506, 0.08737785, -0.33590025, 0.20591679, 0.14739563, 0.18362471, 1.4831877, 0
1049, 1824729263, 0.91456443, 0.09178189, -0.33690318, 0.20407018, 0.16725385, 0.17645365, 1.2633562, 0
1050, 1824745930, 0.91411036, 0.0957482, -0.33792207, 0.20259145, 0.012867864, 0.04244349, 0.97502804, 0
1051, 1824762597, 0.9135126, 0.09942144, -0.33927986, 0.20124415, -0.09019463, -0.10944943, 0.75360584, 0
1052, 1824779264, 0.9127473, 0.10298908, -0.34101006, 0.19999485, -0.09861906, -0.15717475, 0.69333076, 0
1053, 1824795931, 0.9119158, 0.10638064, -0.34285372, 0.19885711, -0.12833443, -0.16901821, 0.64493656, 0
1054, 1824812598, 0.91120267, 0.10952239, -0.34433466, 0.19785963, -0.043154765, -0.15110084, 0.44953632, 0
1055, 1824829265, 0.9106776, 0.11233538, -0.34537303, 0.1968878, 0.06684334, -0.07616193, 0.49408913, 0
1056, 1824845932, 0.9102908, 0.11488291, -0.34607658, 0.19596878, 0.03678107, -0.095825255, 0.40941906, 0
1057, 1824862599, 0.909968, 0.117329314, -0.34656778, 0.19514892, -0.09671696, -0.17756316, 0.37067795, 0
1058, 1824879266, 0.90955436, 0.11981301, -0.34719115, 0.19445808, -0.10830991, -0.20451424, 0.3278656, 0
1059, 1824895933, 0.90910447, 0.122314386, -0.34782246, 0.1938759, -0.041450925, -0.14801073, 0.35927677, 0
1060, 1824912600, 0.90871084, 0.12472086, -0.3482807, 0.19336507, 0.017597174, -0.11005208, 0.3512354, 0
1061, 1824929267, 0.9084489, 0.1268993, -0.34845048, 0.19287263, 0.04560402, -0.06782266, 0.37255764, 0
1062, 1824945934, 0.9083159, 0.12884209, -0.34832558, 0.19243518, 0.017803254, -0.045420293, 0.46178627, 0
1063, 1824962601, 0.9082289, 0.13055664, -0.34811583, 0.19207004, -0.027051996, -0.064618714, 0.40194798, 0
1064, 1824979268, 0.9080606, 0.13233209, -0.3480563, 0.19175746, -0.1569745, -0.17298897, 0.22238159, 0
1065, 1824995935, 0.90784836, 0.1340514, -0.34812522, 0.19144323, -0.17586066, -0.15183996, 0.24759865, 0
1066, 1825012602, 0.9075708, 0.13564172, -0.34845087, 0.19104713, -0.049668156, -0.021298662, 0.45770645, 0
1067, 1825029269, 0.9074041, 0.13683695, -0.34863928, 0.19064224, 0.0025670463, 0.020558164, 0.48106003, 0
1068, 1825045936, 0.9073378, 0.13766278, -0.34867948, 0.19028911, 0.020225463, 0.03405343, 0.48554516, 0
1069, 1825062603, 0.90736836, 0.13821499, -0.3485929, 0.1899011, 0.0022932428, -0.00931479, 0.4029827, 0
1070, 1825079270, 0.9074147, 0.13864149, -0.34852797, 0.18948725, -0.0788366, -0.062952645, 0.2833128, 0
1071, 1825095937, 0.90740705, 0.13905348, -0.34864056, 0.18901426, -0.10636311, -0.0723241, 0.23389149, 0
1072, 1825112604, 0.90729326, 0.13952948, -0.3490063, 0.18853419, -0.02770756, -0.021103535, 0.2065897, 0
1073, 1825129271, 0.9072367, 0.13996616, -0.34920952, 0.1881063, 0.1422309, 0.06663804, 0.17551136, 0
1074, 1825145938, 0.90729505, 0.1402654, -0.34911832, 0.18777105, 0.07963387, 0.06879014, 0.28352928, 0
1075, 1825162605, 0.9074224, 0.14040506, -0.3488767, 0.18749988, -0.012727722, 0.02369662, 0.25201225, 0
1076, 1825179272, 0.907539, 0.14048411, -0.348683, 0.18723673, -0.013487219, 0.023442263, 0.16170692, 0
1077, 1825195939, 0.9076406, 0.1405132, -0.34852841, 0.18701015, 0.042357717, 0.059393093, 0.079574585, 0
1078, 1825212606, 0.9076979, 0.1404836, -0.34850356, 0.18680042, 0.13163505, 0.0782473, 0.1920166, 0
1079, 1825229273, 0.90769446, 0.14047034, -0.34863538, 0.18658024, 0.17100216, 0.07554034, 0.17477894, 0
1080, 1825245940, 0.9077011, 0.14044687, -0.3487286, 0.18639143, 0.14001074, 0.04093718, 0.0672102, 0
1081, 1825262607, 0.9077506, 0.14042933, -0.34868112, 0.18625219, 0.14125751, 0.027731365, 0.032179832, 0
1082, 1825279274, 0.9078016, 0.14055817, -0.34851795, 0.18621196, 0.11244825, -0.0037302077, -0.03468132, 0
1083, 1825295941, 0.9079026, 0.14076503, -0.34817877, 0.18619801, 0.08217566, -0.011938497, -0.01849556, 0
1084, 1825312608, 0.9080755, 0.14089419, -0.34767893, 0.18619142, 0.049602218, 0.026114583, 0.17390633, 0
1085, 1825329275, 0.9081962, 0.1409177, -0.3473107, 0.18627194, -0.11085036, 0.018987313, 0.3411522, 0
1086, 1825345942, 0.9081596, 0.14064533, -0.3474976, 0.18630801, -0.21075618, 0.022974227, 0.47209644, 0
1087, 1825362609, 0.9077424, 0.14018495, -0.3488015, 0.18625104, -0.058918014, 0.082012266, 0.7921095, 0
1088, 1825379276, 0.9068637, 0.13951112, -0.35127568, 0.18638767, -0.026639167, 0.087515384, 1.1354198, 0
1089, 1825395943, 0.9057846, 0.13814552, -0.3543321, 0.18686633, -0.031701513, 0.07811119, 1.5256147, 0
1090, 1825412610, 0.9049564, 0.13519804, -0.35690048, 0.18814304, 0.049126808, 0.3511726, 2.440072, 0
1091, 1825429277, 0.9046269, 0.1301515, -0.3584312, 0.19036317, 0.25097153, 0.29518664, 2.7568254, 0
1092, 1825445944, 0.90461504, 0.123199046, -0.35923734, 0.1934996, 0.22470562, 0.21369861, 2.8636913, 0
1093, 1825462611, 0.9047011, 0.11469238, -0.3596134, 0.19758464, 0.24132337, 0.24081811, 2.7942095, 0
1094, 1825479278, 0.90464675, 0.10491323, -0.35993525, 0.20261814, 0.18273525, 0.2130008, 2.6815062, 0
1095, 1825495945, 0.90429205, 0.094230555, -0.36039945, 0.20853946, 0.11214271, 0.15213712, 2.4890785, 0
1096, 1825512612, 0.9036475, 0.08271783, -0.36082602, 0.21536888, 0.12827721, 0.21216208, 2.3403864, 0
1097, 1825529279, 0.90274924, 0.070367694, -0.36098722, 0.2231159, 0.17726411, 0.36098152, 2.3084736, 0
1098, 1825545946, 0.90176725, 0.05718231, -0.36034143, 0.23173314, 0.16805448, 0.42707872, 2.1790667, 0
1099, 1825562613, 0.9008673, 0.0431195, -0.3584599, 0.24100937, 0.12056557, 0.40235183, 1.9742937, 0
1100, 1825579280, 0.9000606, 0.028463779, -0.35520682, 0.25081652, 0.22344993, 0.41456744, 1.6126118, 0
1101, 1825595947, 0.8994219, 0.013249122, -0.3503508, 0.2609963, 0.2568376, 0.4368138, 1.1677885, 0
1102, 1825612614, 0.8988198, -0.0022124734, -0.34411445, 0.27148423, 0.028256284, 0.35220408, 0.80741215, 0
1103, 1825629281, 0.8981197, -0.017488696, -0.3370146, 0.28195113, -0.02531016, 0.14919238, 0.44933987, 0
1104, 1825645948, 0.8971445, -0.03213586, -0.32958877, 0.29235306, 0.05684225, 0.1712321, 0.15578651, 0
1105, 1825662615, 0.8958979, -0.04616101, -0.32192537, 0.3026554, 0.03765992, 0.22668457, -0.11116314, 0
1106, 1825679282, 0.8943938, -0.059377946, -0.31407914, 0.31287137, -0.10201243, 0.10963609, -0.289773, 0
1107, 1825695949, 0.89257765, -0.071685664, -0.30643332, 0.32290092, -0.108961, 0.08428847, -0.4869957, 0
1108, 1825712616, 0.89052504, -0.083016045, -0.29906672, 0.33261508, -0.03920216, 0.088047065, -0.74186325, 0
1109, 1825729283, 0.88842994, -0.0935075, -0.29166663, 0.3418762, 0.08524583, 0.19095796, -0.841341, 0
1110, 1825745950, 0.8863932, -0.1033092, -0.28397816, 0.35070035, 0.21975325, 0.27958968, -1.0691137, 0
1111, 1825762617, 0.8844414, -0.112499945, -0.27595624, 0.3591037, 0.19033737, 0.38286713, -1.2065439, 0
1112, 1825779284, 0.8825012, -0.12100066, -0.26788113, 0.3671383, 0.020748708, 0.40368557, -1.2534704, 0
1113, 1825795951, 0.88052666, -0.12876002, -0.26001614, 0.37481368, 0.07052035, 0.3913042, -1.3109131, 0
1114, 1825812618, 0.8784716, -0.13610739, -0.25253278, 0.38208592, 0.30705294, 0.4376671, -1.4167328, 0
1115, 1825829285, 0.87640214, -0.14298268, -0.24500048, 0.38916576, 0.2531911, 0.31231454, -1.610631, 0
1116, 1825845952, 0.8743377, -0.14932247, -0.23768234, 0.3959085, 0.11230554, 0.14322694, -1.6381435, 0
1117, 1825862619, 0.87227255, -0.15521032, -0.23079753, 0.40222248, -0.044749305, -0.015518728, -1.6242237, 0
1118, 1825879286, 0.8702696, -0.16070573, -0.2242611, 0.40805823, -0.121509016, -0.1570487, -1.4865065, 0
1119, 1825895953, 0.86825675, -0.16574115, -0.21832137, 0.41351682, -0.23684606, -0.20875473, -1.3623638, 0
1120, 1825912620, 0.86624664, -0.17045085, -0.21285343, 0.41863686, -0.30175164, -0.35160777, -1.2777987, 0
1121, 1825929287, 0.8642902, -0.1747943, -0.20813179, 0.42323822, -0.15589336, -0.24554095, -1.1964779, 0
1122, 1825945954, 0.86240363, -0.1788399, -0.20390363, 0.42743385, -0.14914025, -0.19983567, -1.1614647, 0
1123, 1825962621, 0.86061823, -0.18264352, -0.19996157, 0.43126917, -0.17369248, -0.2969478, -0.98787403, 0
1124, 1825979288, 0.85886747, -0.18612288, -0.19667116, 0.43477076, -0.25298795, -0.2963443, -0.86684227, 0
1125, 1825995955, 0.8571341, -0.18931283, -0.19396095, 0.4380197, -0.21910147, -0.3420573, -0.8029785, 0
1126, 1826012622, 0.8554533, -0.19217016, -0.19190851, 0.44095525, -0.1439856, -0.238567, -0.67553425, 0
1127, 1826029289, 0.85375935, -0.19460975, -0.19056712, 0.4437417, -0.28554663, -0.23956175, -0.48519802, 0
