DeviceTag:,Xsens DOT 3,,,,,,,,,,,,,,,,,
FirmwareVersion:,1.3.0,,,,,,,,,,,,,,,,,
AppVersion:,2020.1.1,,,,,,,,,,,,,,,,,
Measurement Mode:,Sensor fusion Mode - Extended (Quaternion),,,,,,,,,,,,,,,,,
StartTime:,2020-06-16 16:50:55.974 +0200,,,,,,,,,,,,,,,,,
© Xsens Technologies B. V. 2005-2020,,,,,,,,,,,,,,,,,,,
PacketCounter,SampleTimeFine,Quat_W,Quat_X,Quat_Y,Quat_Z,FreeAcc_X,FreeAcc_Y,FreeAcc_Z,Status
1, 1703185799, 0.79069054, -0.1307038, 0.22650185, 0.55355394, -0.0027637377, 0.0021341017, 0.20835686, 0
2, 1703202466, 0.7907363, -0.13036583, 0.22637133, 0.55362165, 0.03036256, -0.04282564, 0.2171545, 0
3, 1703219133, 0.7908393, -0.13048103, 0.226226, 0.5535069, 0.035610307, -0.054123215, 0.17230892, 0
4, 1703235800, 0.7909551, -0.13076901, 0.22614287, 0.55330735, 0.033118363, -0.036065828, 0.17256737, 0
5, 1703252467, 0.79103005, -0.13108571, 0.22609566, 0.5531445, 0.022230934, -0.043452036, 0.19249153, 0
6, 1703269134, 0.79110056, -0.13128366, 0.22605987, 0.55301136, 0.030641168, -0.013404743, 0.2069931, 0
7, 1703285801, 0.7911937, -0.13139948, 0.22592582, 0.5529054, 0.019303473, -0.013888871, 0.18302345, 0
8, 1703302468, 0.7912944, -0.13145535, 0.22580992, 0.5527953, -0.014676866, 0.0069061033, 0.190876, 0
9, 1703319135, 0.7913913, -0.13140538, 0.2257422, 0.55269617, -0.026369276, -0.009510364, 0.21651268, 0
10, 1703335802, 0.79149735, -0.13123435, 0.22562668, 0.5526321, -0.033489283, -0.03979324, 0.2003088, 0
11, 1703352469, 0.79158384, -0.1310958, 0.22554466, 0.5525747, -0.051331427, -0.0049987556, 0.14368916, 0
12, 1703369136, 0.79163057, -0.1310871, 0.22557911, 0.5524957, -0.05685376, 1.1544444E-4, 0.107349396, 0
13, 1703385803, 0.7916635, -0.13113964, 0.22568277, 0.5523938, -0.0379677, -0.029447272, 0.1466465, 0
14, 1703402470, 0.79174906, -0.13115078, 0.22573444, 0.55224717, -0.048377592, -0.07138434, 0.1800518, 0
15, 1703419137, 0.7916595, -0.1312266, 0.22565067, 0.55239195, -0.040302962, -0.045872234, 0.13236618, 0
16, 1703435804, 0.79180783, -0.1311426, 0.22552657, 0.5522501, 0.005486014, -0.022438243, 0.1298151, 0
17, 1703452471, 0.7917571, -0.13115272, 0.22530547, 0.5524104, 0.022702882, -0.06677986, 0.10631466, 0
18, 1703469138, 0.7919674, -0.13107786, 0.22518276, 0.5521766, 0.016501179, -0.061783787, 0.0990963, 0
19, 1703485805, 0.7920703, -0.1310782, 0.22508658, 0.55206805, 0.020598283, -0.033763643, 0.11432743, 0
20, 1703502472, 0.7922085, -0.13108574, 0.22509037, 0.55186653, 0.0050142896, -0.00570338, 0.13334846, 0
21, 1703519139, 0.7920828, -0.13125533, 0.22509603, 0.5520044, -0.021030223, 0.037636787, 0.1618061, 0
22, 1703535806, 0.7921577, -0.1313873, 0.22514771, 0.5518445, -0.048284497, -0.01866445, 0.16606903, 0
23, 1703552473, 0.79194105, -0.13159966, 0.22505437, 0.55214274, -0.003138122, -0.025315637, 0.1847887, 0
24, 1703569140, 0.7921992, -0.13151553, 0.2249677, 0.55182767, 0.017213628, -0.027051885, 0.19658852, 0
25, 1703585807, 0.7922003, -0.13147385, 0.22475263, 0.5519239, 0.062885925, -0.0057180203, 0.16428375, 0
26, 1703602474, 0.79198426, -0.13159426, 0.22458579, 0.55227286, 0.033365678, 0.020521507, 0.13523006, 0
27, 1703619141, 0.79200506, -0.13168739, 0.22453092, 0.55224305, -0.0067801536, 0.025550548, 0.13063622, 0
28, 1703635808, 0.7919107, -0.13185272, 0.2244728, 0.5523626, -0.036829796, 0.011059086, 0.16772938, 0
29, 1703652475, 0.7918561, -0.1319833, 0.22437969, 0.5524475, -0.04061968, 0.009071944, 0.19408894, 0
30, 1703669142, 0.7918058, -0.13204792, 0.22422391, 0.55256736, 0.0067384685, 0.0096438015, 0.2157774, 0
31, 1703685809, 0.7917795, -0.13211928, 0.22405636, 0.55265594, -0.010571827, 0.0046654977, 0.15182972, 0
32, 1703702476, 0.79151773, -0.13228194, 0.2238877, 0.5530601, 0.019786485, 0.03712729, 0.13228607, 0
33, 1703719143, 0.7916992, -0.13229899, 0.2239079, 0.5527882, -0.0018212954, 0.010707835, 0.10912609, 0
34, 1703735810, 0.7915612, -0.13248715, 0.22387184, 0.5529553, 0.025156606, -0.0035253582, 0.1299715, 0
35, 1703752477, 0.7915175, -0.13254583, 0.22379586, 0.55303466, 0.027193258, -0.040053632, 0.13547134, 0
36, 1703769144, 0.7912638, -0.13261312, 0.22362013, 0.55345225, 0.053203125, -0.026342902, 0.14749622, 0
37, 1703785811, 0.7912276, -0.13259521, 0.22356813, 0.5535293, 0.053373218, -0.012778236, 0.13743877, 0
38, 1703802478, 0.79118603, -0.13262014, 0.22356708, 0.5535832, -0.014447318, -0.013892783, 0.11429787, 0
39, 1703819145, 0.79103947, -0.13277109, 0.22361352, 0.5537378, -0.027070101, -0.020950316, 0.108371735, 0
40, 1703835812, 0.79082495, -0.13298807, 0.22369644, 0.5539585, -0.026616147, -0.01276136, 0.11777115, 0
41, 1703852479, 0.7908627, -0.13310029, 0.22379096, 0.55383956, -0.013872444, -0.017590245, 0.12381935, 0
42, 1703869146, 0.7908865, -0.13315813, 0.22378257, 0.553795, -0.01935477, -0.04990832, 0.19031334, 0
43, 1703885813, 0.7908039, -0.13313515, 0.22361815, 0.5539852, 0.00705094, -0.07342132, 0.21413231, 0
44, 1703902480, 0.7913633, -0.13277504, 0.22357708, 0.5532886, 0.037429813, -0.0048912456, 0.15701199, 0
45, 1703919147, 0.7914652, -0.13268079, 0.22356433, 0.5531705, 0.034012415, 0.042054076, 0.14311981, 0
46, 1703935814, 0.7913716, -0.13281019, 0.22366968, 0.5532308, 0.0105443355, 0.05517842, 0.1550436, 0
47, 1703952481, 0.791277, -0.13298671, 0.22375983, 0.5532874, -0.044221926, -9.4814197E-4, 0.19946861, 0
48, 1703969148, 0.79117435, -0.13312037, 0.22380224, 0.55338484, -0.02232168, 0.0012663127, 0.20054054, 0
49, 1703985815, 0.7913362, -0.1331124, 0.22378273, 0.5531633, -0.041597772, 0.0063828593, 0.17210484, 0
50, 1704002482, 0.7913796, -0.13313864, 0.22368741, 0.55313325, -0.023752833, 0.006644705, 0.15079212, 0
51, 1704019149, 0.79163337, -0.13304874, 0.22361864, 0.55281967, 0.028843006, -0.013071485, 0.13620567, 0
52, 1704035816, 0.7918229, -0.13291395, 0.22353631, 0.55261374, 0.02444036, 0.017321248, 0.16586685, 0
53, 1704052483, 0.7916664, -0.1329573, 0.22340804, 0.5528794, -0.0017737988, 0.025170688, 0.16283226, 0
54, 1704069150, 0.79169005, -0.13300374, 0.22340792, 0.5528344, 0.02410375, 0.04542007, 0.11302948, 0
55, 1704085817, 0.7915816, -0.13318811, 0.22347611, 0.55291784, 0.022376217, 0.004829556, 0.1387062, 0
56, 1704102484, 0.7916191, -0.13332345, 0.22359063, 0.55278504, -0.0016560075, -0.024409514, 0.1283617, 0
57, 1704119151, 0.7916737, -0.13338104, 0.22362143, 0.55268055, -0.0098300995, -0.053151157, 0.19124603, 0
58, 1704135818, 0.79185104, -0.13329017, 0.223557, 0.5524744, -0.0153839495, -0.055257097, 0.17542267, 0
59, 1704152485, 0.7922357, -0.13307427, 0.22350672, 0.55199534, -0.020035366, -7.107712E-4, 0.15358257, 0
60, 1704169152, 0.7922101, -0.1331004, 0.22342421, 0.5520589, -0.029007176, -0.0044636657, 0.089621544, 0
61, 1704185819, 0.7921073, -0.1332191, 0.2233983, 0.55218834, 0.010036738, -0.004523902, 0.12622643, 0
62, 1704202486, 0.79216987, -0.13327688, 0.22346716, 0.5520567, 0.021183887, -0.017269505, 0.1786871, 0
63, 1704219153, 0.7920021, -0.13341719, 0.22344267, 0.55227345, 0.024475675, -0.007397273, 0.21428776, 0
64, 1704235820, 0.79202807, -0.13341121, 0.22339374, 0.5522574, -0.0062639504, -0.0011374574, 0.18171501, 0
65, 1704252487, 0.79195005, -0.13338897, 0.2233296, 0.55240065, 0.01983901, 0.08170941, 0.15053844, 0
66, 1704269154, 0.7915729, -0.13357365, 0.22328311, 0.5529151, 0.02024681, 0.041529264, 0.16246033, 0
67, 1704285821, 0.79156405, -0.13366903, 0.22335953, 0.5528739, -0.005068827, -0.00864347, 0.1481371, 0
68, 1704302488, 0.7915439, -0.13373749, 0.22336166, 0.5528853, -0.013402508, -0.037088733, 0.12120342, 0
69, 1704319155, 0.79168856, -0.13373773, 0.22339658, 0.55266404, -0.020385053, -0.020431766, 0.1398983, 0
70, 1704335822, 0.7917969, -0.13372563, 0.22341001, 0.55250645, -0.035853155, -0.0240358, 0.18704987, 0
71, 1704352489, 0.7915988, -0.13382733, 0.2232919, 0.5528134, -0.02787877, -0.03913589, 0.16528702, 0
72, 1704369156, 0.7914162, -0.13386036, 0.22314803, 0.55312455, 0.0045710634, -0.008245169, 0.16260624, 0
73, 1704385823, 0.79128677, -0.13387623, 0.22300048, 0.5533654, 0.020388292, 0.0065250136, 0.17940998, 0
74, 1704402490, 0.79106706, -0.13390146, 0.22285822, 0.55373055, 0.06794112, 0.027436104, 0.19496822, 0
75, 1704419157, 0.7913384, -0.13371404, 0.22286059, 0.55338705, 0.061431978, 0.06532345, 0.17242336, 0
76, 1704435824, 0.7916197, -0.13354497, 0.22296771, 0.55298215, 0.017595274, 9.1506203E-4, 0.18714333, 0
77, 1704452491, 0.7916773, -0.13348436, 0.22303124, 0.5528887, -0.008297248, 2.2910078E-4, 0.16223335, 0
78, 1704469158, 0.79171187, -0.13343695, 0.2231149, 0.55281705, -0.025697956, 0.018025873, 0.13848686, 0
79, 1704485825, 0.7916589, -0.1335296, 0.22317587, 0.552846, -0.06082905, -0.005699916, 0.09888172, 0
80, 1704502492, 0.7917672, -0.13356137, 0.2232119, 0.55266875, -0.041801505, -0.0056925397, 0.13169765, 0
81, 1704519159, 0.7917676, -0.13364014, 0.22316733, 0.55266696, -0.037544142, -0.0378508, 0.15549088, 0
82, 1704535826, 0.79175466, -0.13367213, 0.2230445, 0.5527274, -0.039115325, -0.069697484, 0.14448357, 0
83, 1704552493, 0.7914017, -0.13377216, 0.22278017, 0.553315, 0.02695868, -0.060852073, 0.14802647, 0
84, 1704569160, 0.79163873, -0.13358675, 0.22272357, 0.55304337, 0.04096143, 0.04199328, 0.14652348, 0
85, 1704585827, 0.79162717, -0.13359347, 0.22275995, 0.55304366, 0.03071515, 0.050296113, 0.12968826, 0
86, 1704602494, 0.7917163, -0.13362487, 0.22293836, 0.55283666, -0.0030433524, 0.036565043, 0.13229656, 0
87, 1704619161, 0.7918408, -0.13364813, 0.22313087, 0.5525748, 0.008134084, -0.023006076, 0.13177395, 0
88, 1704635828, 0.79194057, -0.13362506, 0.22327481, 0.55237937, 0.015463856, -0.021051232, 0.16190243, 0
89, 1704652495, 0.7919988, -0.13362741, 0.22339217, 0.5522478, -0.017331976, -0.04277535, 0.14705563, 0
90, 1704669162, 0.7919512, -0.13364364, 0.22339472, 0.55231124, -0.00777691, -0.042925216, 0.15711021, 0
91, 1704685829, 0.7917854, -0.13366751, 0.22326908, 0.5525936, 0.0012963752, -0.03707577, 0.16492939, 0
92, 1704702496, 0.7918062, -0.13358594, 0.22315161, 0.55263096, -0.0012447437, -0.023616603, 0.14836597, 0
93, 1704719163, 0.79178953, -0.13353084, 0.22306243, 0.55270445, 0.0066477223, 0.018745473, 0.17480469, 0
94, 1704735830, 0.7917932, -0.13356698, 0.22310446, 0.5526734, 7.295463E-4, 0.0018961722, 0.19541168, 0
95, 1704752497, 0.7917041, -0.13360521, 0.22317645, 0.55276275, 0.015747605, 0.02656809, 0.17228603, 0
96, 1704769164, 0.79164046, -0.13358483, 0.22323318, 0.552836, 0.02332827, 0.05169743, 0.14428234, 0
97, 1704785831, 0.79163706, -0.13359734, 0.22331029, 0.5528065, 0.013595511, 0.0098236175, 0.102703094, 0
98, 1704802498, 0.79145145, -0.13368118, 0.22333032, 0.55304396, 0.008687837, -0.035630535, 0.1494093, 0
99, 1704819165, 0.79144466, -0.13366185, 0.22335297, 0.55304927, -0.009147044, -0.049226157, 0.19735718, 0
100, 1704835832, 0.7914872, -0.13359636, 0.2232763, 0.5530351, -0.021742335, -0.03649553, 0.1742363, 0
101, 1704852499, 0.7915662, -0.13350064, 0.22325736, 0.55295277, 0.011952691, 0.020192944, 0.15304947, 0
102, 1704869166, 0.7916913, -0.133462, 0.22335249, 0.55274457, 0.0028986277, 0.033092882, 0.13130188, 0
103, 1704885833, 0.7913458, -0.13364296, 0.22331154, 0.55321205, -0.014361825, 0.015750734, 0.15378952, 0
104, 1704902500, 0.7913908, -0.1335645, 0.22329693, 0.5531726, 0.0059294635, -0.015294656, 0.18792057, 0
105, 1704919167, 0.7913724, -0.13349588, 0.22325674, 0.5532314, 0.027974881, 0.009045234, 0.1848898, 0
106, 1704935834, 0.7915419, -0.1333935, 0.22329895, 0.55299664, -0.010447666, 0.007522217, 0.12681675, 0
107, 1704952501, 0.7915934, -0.1333918, 0.22339539, 0.5528843, -0.022967745, -0.004307877, 0.11944389, 0
108, 1704969168, 0.7916238, -0.13338695, 0.22350845, 0.5527963, 0.0035885004, -0.053314768, 0.18329334, 0
109, 1704985835, 0.7915916, -0.1333857, 0.22354233, 0.552829, -0.00735, -0.034019567, 0.1868906, 0
110, 1705002502, 0.7915984, -0.13336743, 0.22351936, 0.55283296, 0.0020892874, 0.0039176233, 0.18273735, 0
111, 1705019169, 0.7914951, -0.13340108, 0.22340967, 0.553017, 0.0017862038, 0.005864645, 0.17626095, 0
112, 1705035836, 0.7917751, -0.13322082, 0.2233635, 0.5526782, 0.021204116, -0.00278106, 0.200634, 0
113, 1705052503, 0.79193175, -0.13308564, 0.22333242, 0.552499, 0.054273862, -0.009469797, 0.13717937, 0
114, 1705069170, 0.79207075, -0.13295402, 0.22341673, 0.5522973, 0.046073396, 0.05223833, 0.11533642, 0
115, 1705085837, 0.7920392, -0.1329691, 0.22356229, 0.55228, 0.003037206, 0.02599165, 0.1369276, 0
116, 1705102504, 0.79194385, -0.13306898, 0.22368313, 0.5523439, -0.036156237, -0.031594675, 0.13960171, 0
117, 1705119171, 0.7919159, -0.13314876, 0.22373906, 0.55234206, -0.044499084, -0.031681955, 0.13621235, 0
118, 1705135838, 0.7918464, -0.13325037, 0.22373368, 0.5524192, -0.06705187, -0.028604293, 0.16860104, 0
119, 1705152505, 0.7918832, -0.13322653, 0.22366078, 0.5524017, -0.031493645, -0.055626564, 0.18715286, 0
120, 1705169172, 0.79207534, -0.13305806, 0.22359832, 0.55219215, 4.791E-4, -0.025275739, 0.141963, 0
121, 1705185839, 0.79202044, -0.13296482, 0.22353913, 0.5523173, 0.03452638, 0.030950174, 0.15978146, 0
122, 1705202506, 0.7920563, -0.13287546, 0.22359347, 0.5522653, 0.06127809, 0.06558552, 0.14340973, 0
123, 1705219173, 0.7920152, -0.13292456, 0.22372903, 0.55225766, 0.049377922, 0.052570358, 0.14511395, 0
124, 1705235840, 0.79227656, -0.13291223, 0.22395755, 0.55179286, 0.008682584, 0.016596619, 0.13600636, 0
125, 1705252507, 0.7922394, -0.1329931, 0.22400975, 0.5518052, -0.032958437, -0.036677916, 0.16019249, 0
126, 1705269174, 0.7922844, -0.13296661, 0.22395633, 0.5517687, -0.04720437, -0.065328814, 0.20561409, 0
127, 1705285841, 0.7923273, -0.13288555, 0.2238559, 0.5517674, -0.029331159, -0.022468193, 0.16689968, 0
128, 1705302508, 0.792318, -0.13285334, 0.22379626, 0.55181265, -0.012531701, 0.028669002, 0.14435959, 0
129, 1705319175, 0.7923853, -0.13284397, 0.2238581, 0.5516934, 0.02153782, 0.05067128, 0.13442802, 0
130, 1705335842, 0.79226005, -0.13294883, 0.22391503, 0.551825, 0.014639763, 0.017627796, 0.13968754, 0
131, 1705352509, 0.79221606, -0.13302232, 0.22396845, 0.55184877, 0.03906068, -0.032264207, 0.19661617, 0
132, 1705369176, 0.79224265, -0.13297896, 0.22394027, 0.5518326, 0.00704714, -0.031187769, 0.1822176, 0
133, 1705385843, 0.7924737, -0.13283177, 0.22390635, 0.55154973, -0.016823374, 0.009196441, 0.18676662, 0
134, 1705402510, 0.7925197, -0.13282166, 0.22386941, 0.5515011, -0.0024049995, 0.05503582, 0.13525581, 0
135, 1705419177, 0.79253113, -0.13286118, 0.2238821, 0.5514699, 0.0018268832, 0.07188713, 0.106152534, 0
136, 1705435844, 0.79244244, -0.13299008, 0.22396645, 0.5515322, 0.0035202173, -0.030576125, 0.16905594, 0
137, 1705452511, 0.79241234, -0.13300037, 0.22395468, 0.55157787, -0.006712429, -0.058960594, 0.17051792, 0
138, 1705469178, 0.79233164, -0.13293307, 0.22382797, 0.5517613, 0.00444679, -7.434041E-4, 0.17603016, 0
139, 1705485845, 0.79191065, -0.13306986, 0.22368959, 0.5523887, 0.016948652, 0.015151831, 0.13385582, 0
140, 1705502512, 0.79183316, -0.13311887, 0.22369307, 0.5524862, -0.016882492, 0.043817256, 0.10818863, 0
141, 1705519179, 0.7916387, -0.13328886, 0.22372524, 0.55271083, -0.03325046, 0.00236242, 0.13423824, 0
142, 1705535846, 0.7914401, -0.13343352, 0.22368236, 0.5529777, -0.018115278, -0.041199025, 0.17553902, 0
143, 1705552513, 0.79129887, -0.13346063, 0.22356758, 0.5532196, -0.003025248, -0.03992109, 0.16013241, 0
144, 1705569180, 0.79141545, -0.13334112, 0.223518, 0.55310166, 0.0045496062, -0.011693415, 0.14560604, 0
145, 1705585847, 0.791649, -0.1332276, 0.22354004, 0.5527858, 0.006357714, 0.026633358, 0.13433075, 0
146, 1705602514, 0.7916515, -0.1332252, 0.22350176, 0.5527983, 0.018269949, 0.0059520383, 0.18180847, 0
147, 1705619181, 0.7917388, -0.1332078, 0.22349223, 0.5526814, 0.03427571, 0.014124454, 0.1457777, 0
148, 1705635848, 0.79167837, -0.13325118, 0.22345577, 0.5527722, 0.03113949, 0.022774965, 0.1605587, 0
149, 1705652515, 0.7916778, -0.13329001, 0.22349447, 0.5527479, 0.008576751, 0.022440923, 0.18269157, 0
150, 1705669182, 0.79166126, -0.13330826, 0.22347248, 0.5527762, -0.02523696, 0.029726552, 0.1968813, 0
151, 1705685849, 0.7915765, -0.13335435, 0.22338897, 0.5529202, -0.02129475, 0.024102744, 0.16377926, 0
152, 1705702516, 0.79157245, -0.13339558, 0.22336052, 0.55292755, -0.012250968, -0.006815469, 0.14684391, 0
153, 1705719183, 0.79148716, -0.13346657, 0.2233003, 0.5530569, -0.0010853789, -0.031870376, 0.1427288, 0
154, 1705735850, 0.7911607, -0.13361523, 0.2231402, 0.5535523, -0.003850793, -0.04570851, 0.14923859, 0
155, 1705752517, 0.7911843, -0.13361466, 0.2230466, 0.5535564, -0.012743815, -0.02363996, 0.14527035, 0
156, 1705769184, 0.7911257, -0.13363804, 0.22292426, 0.5536837, -0.036746982, -4.1361072E-4, 0.16680622, 0
157, 1705785851, 0.79117477, -0.13361154, 0.22285542, 0.5536479, -0.017583318, -0.011651283, 0.18245697, 0
158, 1705802518, 0.79096943, -0.13367625, 0.22274399, 0.5539704, 0.023445839, 0.014389988, 0.13572979, 0
159, 1705819185, 0.7910187, -0.13365307, 0.22274992, 0.5539033, 0.037627287, 0.04925499, 0.13129139, 0
160, 1705835852, 0.79088753, -0.13374533, 0.22275576, 0.5540661, 0.030518124, 0.011775557, 0.1531496, 0
161, 1705852519, 0.790875, -0.13379908, 0.22276601, 0.55406666, -0.008001428, 0.015221009, 0.15538979, 0
162, 1705869186, 0.79083973, -0.13382684, 0.2227118, 0.55413216, -0.027428728, -0.008745839, 0.16061878, 0
163, 1705885853, 0.7906705, -0.13394406, 0.22268069, 0.55435795, -0.025477683, -0.0113572525, 0.17224407, 0
164, 1705902520, 0.79064626, -0.13406143, 0.22269757, 0.5543572, -0.024649456, -0.009647601, 0.17835808, 0
165, 1705919187, 0.7906862, -0.13409522, 0.2226994, 0.55429125, -0.017665347, -0.055509444, 0.19411182, 0
166, 1705935854, 0.790919, -0.13395703, 0.22260107, 0.5540322, -0.012993478, -0.023663428, 0.18714142, 0
167, 1705952521, 0.7908221, -0.13394499, 0.22245143, 0.5542335, 0.03210853, 0.04871096, 0.16423607, 0
168, 1705969188, 0.7908437, -0.13395065, 0.22241032, 0.55421746, 0.0431798, 0.09157717, 0.11785412, 0
169, 1705985855, 0.790777, -0.134069, 0.22241507, 0.55428207, -0.008113632, 0.05102164, 0.12893105, 0
170, 1706002522, 0.79085356, -0.13411711, 0.2224384, 0.554152, -0.016350085, -4.8591717E-4, 0.19041729, 0
171, 1706019189, 0.79109335, -0.13405205, 0.22242326, 0.5538314, -0.022843583, 0.0061749923, 0.19686413, 0
172, 1706035856, 0.7911677, -0.1340507, 0.22232005, 0.553767, -0.0526392, -0.010945653, 0.16482258, 0
173, 1706052523, 0.7911984, -0.13407095, 0.22216406, 0.55378103, -0.029339764, 0.015647471, 0.18872547, 0
174, 1706069190, 0.79128575, -0.13405271, 0.22198625, 0.553732, 0.010044896, 0.011427547, 0.18113327, 0
175, 1706085857, 0.7911015, -0.1341352, 0.22174592, 0.5540713, 0.012011698, 0.031383455, 0.19002914, 0
176, 1706102524, 0.79114586, -0.13411826, 0.22158127, 0.554078, 0.028557021, 0.031647757, 0.16352272, 0
177, 1706119191, 0.79117626, -0.13412617, 0.22146346, 0.5540797, 0.022229929, 0.028047634, 0.14894962, 0
178, 1706135858, 0.79122055, -0.13416985, 0.22144544, 0.55401313, 0.03543731, 0.025965054, 0.14957142, 0
179, 1706152525, 0.7911958, -0.13425, 0.22141263, 0.5540422, 0.02165237, 9.0511574E-4, 0.17719364, 0
180, 1706169192, 0.79123425, -0.13432355, 0.22135301, 0.5539934, -0.039487585, -0.03398682, 0.15498543, 0
181, 1706185859, 0.79142535, -0.13426201, 0.22126324, 0.55377096, -0.011814336, -0.028645309, 0.11844826, 0
182, 1706202526, 0.7914128, -0.13426399, 0.2211255, 0.5538436, 0.004607943, -0.011725155, 0.12441635, 0
183, 1706219193, 0.79143894, -0.13425766, 0.22105852, 0.5538347, 0.01193928, -0.0030988953, 0.14923191, 0
184, 1706235860, 0.79152614, -0.13422124, 0.2210453, 0.55372363, -0.014798458, -0.01072471, 0.13510132, 0
185, 1706252527, 0.7916397, -0.13416609, 0.22105035, 0.5535729, -0.024249144, 0.01594575, 0.115057945, 0
186, 1706269194, 0.7915692, -0.13419777, 0.22102632, 0.5536756, -0.0069546057, 0.008532495, 0.16391468, 0
187, 1706285861, 0.79129606, -0.13435112, 0.22093338, 0.5540659, -0.023139961, -0.028436435, 0.18955517, 0
188, 1706302528, 0.79126847, -0.13441446, 0.22088867, 0.55410767, -0.021923045, -0.036967143, 0.18060398, 0
189, 1706319195, 0.7912442, -0.13443857, 0.22080079, 0.55417156, 4.52949E-4, 0.003234456, 0.17097759, 0
190, 1706335862, 0.7912922, -0.13442713, 0.22074978, 0.55412614, 0.021456461, 0.052162, 0.14898014, 0
191, 1706352529, 0.7911168, -0.13451542, 0.22065452, 0.554393, 0.0282127, 0.064452976, 0.1404562, 0
192, 1706369196, 0.79104847, -0.13459304, 0.22064377, 0.55447596, 0.03045554, 0.0133506525, 0.16371727, 0
193, 1706385863, 0.7910067, -0.13462296, 0.2206258, 0.55453527, 0.014725033, 0.0012111049, 0.18077374, 0
194, 1706402530, 0.791065, -0.13462175, 0.22061734, 0.55445576, 0.009456498, -5.1206816E-4, 0.1548605, 0
195, 1706419197, 0.7909285, -0.13472585, 0.22055708, 0.55464923, -0.032777615, 0.024469081, 0.14947796, 0
196, 1706435864, 0.7909317, -0.13478616, 0.22049278, 0.55465543, -0.018621199, -0.004117332, 0.1866827, 0
197, 1706452531, 0.7907432, -0.134918, 0.22040783, 0.554926, 0.012473364, -0.009595299, 0.16410732, 0
198, 1706469198, 0.7908773, -0.13488933, 0.22038722, 0.55475014, -0.0030758735, 0.020423608, 0.15944004, 0
199, 1706485865, 0.7907795, -0.1349596, 0.2203016, 0.5549062, -0.024648786, 0.026576584, 0.13168621, 0
200, 1706502532, 0.79063845, -0.13503118, 0.22020389, 0.55512875, 0.001251896, 0.01439401, 0.14645195, 0
201, 1706519199, 0.7907241, -0.1350096, 0.22019967, 0.5550135, 0.0016655067, -0.04289996, 0.18585587, 0
202, 1706535866, 0.79083717, -0.13495307, 0.22014397, 0.5548882, 0.0013998616, -0.03507533, 0.17014027, 0
203, 1706552533, 0.79073286, -0.13497522, 0.22003525, 0.5550746, 0.00522238, -0.020379465, 0.15590191, 0
204, 1706569200, 0.79074436, -0.13497244, 0.22001366, 0.55506736, 0.041352354, 0.012763372, 0.13629341, 0
205, 1706585867, 0.7906554, -0.13502449, 0.22006375, 0.55516154, 0.002020669, 0.055166572, 0.12225437, 0
206, 1706602534, 0.79062665, -0.1350896, 0.22018556, 0.5551384, 0.0058657625, 0.025879784, 0.14095974, 0
207, 1706619201, 0.79037774, -0.13525352, 0.22022578, 0.5554371, 0.013223362, -0.019904276, 0.16905594, 0
208, 1706635868, 0.7904441, -0.13523859, 0.22027645, 0.5553262, -0.01460199, -0.06542113, 0.16058159, 0
209, 1706652535, 0.7904948, -0.13517523, 0.22022311, 0.5552905, -0.037817832, -0.019584093, 0.14868355, 0
210, 1706669202, 0.79037476, -0.13513766, 0.22011547, 0.5555132, -0.046000417, 0.010293107, 0.16260338, 0
211, 1706685869, 0.7902436, -0.13515182, 0.22007637, 0.5557118, -0.0087117525, 0.0029184087, 0.16876888, 0
212, 1706702536, 0.790259, -0.13514443, 0.22015032, 0.55566216, 0.014642557, 3.9885886E-4, 0.14254284, 0
213, 1706719203, 0.79027754, -0.13511226, 0.2202321, 0.55561125, 0.024940582, 0.009603793, 0.15130424, 0
214, 1706735870, 0.79036665, -0.13505185, 0.22032256, 0.5554636, 0.02776355, 0.015995147, 0.13360214, 0
215, 1706752537, 0.7904466, -0.13501671, 0.22047569, 0.5552977, 0.0033370485, 0.0052915574, 0.11715031, 0
216, 1706769204, 0.790573, -0.1349628, 0.2206034, 0.5550798, 0.012817797, -0.033048626, 0.14931011, 0
217, 1706785871, 0.7906189, -0.13488704, 0.22065568, 0.55501205, -0.004810893, -0.0309951, 0.15808296, 0
218, 1706802538, 0.79073656, -0.13478766, 0.22069024, 0.55485475, -0.029016675, 0.003600123, 0.16891575, 0
219, 1706819205, 0.79068756, -0.13477415, 0.22069092, 0.5549275, -0.03332891, 0.004912144, 0.18023968, 0
220, 1706835872, 0.79065496, -0.13477238, 0.2207228, 0.554962, -0.021305814, 0.030961685, 0.17711735, 0
221, 1706852539, 0.79082644, -0.13465476, 0.22077504, 0.5547251, 0.008112626, 0.053766936, 0.2025795, 0
222, 1706869206, 0.7910517, -0.13451034, 0.22079104, 0.5544327, 0.02918811, 0.057368737, 0.19381332, 0
223, 1706885873, 0.79097146, -0.1345177, 0.22074744, 0.5545627, 0.05109629, 0.059642643, 0.18499565, 0
224, 1706902540, 0.79067576, -0.13466908, 0.2207156, 0.5549602, 0.034091648, 0.040678352, 0.15863705, 0
225, 1706919207, 0.79074275, -0.13468014, 0.22078368, 0.5548349, 0.0034394173, -0.0066149775, 0.16203308, 0
226, 1706935874, 0.7906849, -0.1347387, 0.22080213, 0.55489594, -0.0124181565, -0.03407455, 0.1455946, 0
227, 1706952541, 0.79069865, -0.13475458, 0.22076483, 0.55488724, -0.008480975, -0.026504837, 0.13096428, 0
228, 1706969208, 0.7905487, -0.13480598, 0.22066611, 0.5551276, -0.02081565, -0.0376141, 0.1118536, 0
229, 1706985875, 0.7905694, -0.13474266, 0.2205507, 0.55515945, -0.018480163, -0.017165348, 0.13199234, 0
230, 1707002542, 0.7906838, -0.13461372, 0.22051124, 0.5550435, -0.012922178, -0.0026861788, 0.15494823, 0
231, 1707019209, 0.79058325, -0.13458468, 0.22046652, 0.55521137, 0.011804278, 0.01862701, 0.15943241, 0
232, 1707035876, 0.7906287, -0.13452883, 0.22052822, 0.5551358, -0.01460389, 0.051828742, 0.11959839, 0
233, 1707052543, 0.790631, -0.13457394, 0.22073762, 0.55503833, -0.016115619, 0.01965774, 0.14909077, 0
234, 1707069210, 0.790334, -0.13476767, 0.22082686, 0.55537874, -0.013825059, -0.009946215, 0.18617535, 0
235, 1707085877, 0.79034513, -0.1347551, 0.22085404, 0.55535525, -0.029526845, -0.050401278, 0.18315601, 0
236, 1707102544, 0.7903509, -0.13471664, 0.22080033, 0.5553774, 0.016268838, -0.006113303, 0.1517849, 0
237, 1707119211, 0.79038733, -0.13465683, 0.22075632, 0.5553576, 0.034666523, 0.03895216, 0.14020634, 0
238, 1707135878, 0.79040956, -0.13463227, 0.22073331, 0.555341, 0.043656327, 0.017639643, 0.16791344, 0
239, 1707152545, 0.79074645, -0.13446769, 0.2208027, 0.5548736, 0.033397753, 0.022797652, 0.19053173, 0
240, 1707169212, 0.79080886, -0.13440292, 0.22082244, 0.5547925, 0.00629256, 0.010440066, 0.21149635, 0
241, 1707185879, 0.79083556, -0.13436541, 0.22082631, 0.554762, -0.0012757002, 0.041083917, 0.16286755, 0
242, 1707202546, 0.79079163, -0.13444345, 0.22087935, 0.55478454, -0.0069926027, 0.06962339, 0.15236759, 0
243, 1707219213, 0.7909032, -0.13449533, 0.22095107, 0.55458444, -0.036623493, 0.01790741, 0.16398048, 0
244, 1707235880, 0.7910064, -0.13449155, 0.22094125, 0.5544422, -0.003721379, 2.9805454E-4, 0.17779827, 0
245, 1707252547, 0.7909026, -0.13450243, 0.2208369, 0.55462897, 0.023399347, -0.01352041, 0.16133976, 0
246, 1707269214, 0.79099315, -0.13445169, 0.22077984, 0.5545348, -0.011047575, -0.015543762, 0.11422825, 0
247, 1707285881, 0.7909071, -0.1344858, 0.22072373, 0.55467165, -0.015905406, -0.014632611, 0.11671543, 0
248, 1707302548, 0.7906404, -0.13461441, 0.22065175, 0.5550493, -0.01822033, -0.019829175, 0.14304638, 0
249, 1707319215, 0.79061127, -0.13461958, 0.22063114, 0.55509746, -0.035945017, -0.0038600687, 0.16784191, 0
250, 1707335882, 0.79056704, -0.13459621, 0.22060588, 0.5551763, 0.007993829, 0.017030457, 0.17557049, 0
251, 1707352549, 0.79057086, -0.13456106, 0.2205916, 0.5551852, 0.0056202332, 0.02963603, 0.15347576, 0
252, 1707369216, 0.7905541, -0.13455749, 0.22058645, 0.555212, 0.024203436, 0.037598904, 0.15149593, 0
253, 1707385883, 0.79056793, -0.13453926, 0.22059721, 0.5551923, 0.0310103, 0.009260812, 0.15293312, 0
254, 1707402550, 0.7906602, -0.13448396, 0.22060132, 0.5550728, -0.008686049, -0.0039859065, 0.15123367, 0
255, 1707419217, 0.7905183, -0.13452318, 0.22050087, 0.55530506, -0.01836036, -0.019511787, 0.16394997, 0
256, 1707435884, 0.79048055, -0.1345266, 0.22044003, 0.55538213, -0.013174189, 0.004081682, 0.15036869, 0
257, 1707452551, 0.7905085, -0.13452236, 0.22048162, 0.55532694, -0.022556592, 0.024566421, 0.1660738, 0
258, 1707469218, 0.7905023, -0.13456224, 0.22049789, 0.5553197, -0.028959345, -0.0050163013, 0.16713524, 0
259, 1707485885, 0.790537, -0.13458236, 0.22046351, 0.5552791, -0.036451276, -0.00102246, 0.17260075, 0
260, 1707502552, 0.79035735, -0.13467006, 0.22037858, 0.555547, -0.020262232, -0.005667171, 0.1730547, 0
261, 1707519219, 0.7903713, -0.13462952, 0.22030486, 0.55556643, 0.01625498, 0.024979472, 0.15476894, 0
262, 1707535886, 0.7903041, -0.13461523, 0.22026037, 0.5556829, 0.03362965, 0.0125752855, 0.13049793, 0
263, 1707552553, 0.79005355, -0.1346766, 0.2201813, 0.55605537, 0.023153596, -0.014764596, 0.15434265, 0
264, 1707569220, 0.7900944, -0.134649, 0.22018883, 0.5560013, 0.041474395, 0.003912594, 0.14219666, 0
265, 1707585887, 0.790213, -0.13458861, 0.22022444, 0.5558333, 0.026414538, 0.022256972, 0.15548801, 0
266, 1707602554, 0.790006, -0.13471666, 0.22019729, 0.55610716, -0.004383201, 0.030828696, 0.1609354, 0
267, 1707619221, 0.79002523, -0.13475983, 0.22018553, 0.556074, -0.029362226, -0.005072515, 0.16230106, 0
268, 1707635888, 0.78999007, -0.13480945, 0.22012766, 0.5561348, -0.02372903, -0.0057743452, 0.19145107, 0
269, 1707652555, 0.7898841, -0.13482602, 0.22001149, 0.5563273, -0.008882405, -0.012522202, 0.19055748, 0
270, 1707669222, 0.78969586, -0.13486189, 0.21985938, 0.55664575, -0.009935598, 0.015853997, 0.16536808, 0
271, 1707685889, 0.789732, -0.13484153, 0.21981314, 0.55661774, 0.018774306, 0.024585083, 0.13067913, 0
272, 1707702556, 0.7897566, -0.13486592, 0.21984951, 0.55656254, 0.011733312, 0.007530822, 0.14695454, 0
273, 1707719223, 0.7897705, -0.13491845, 0.21988638, 0.5565155, 0.023161978, 0.006270097, 0.11479473, 0
274, 1707735890, 0.78977966, -0.1349843, 0.21992034, 0.55647314, -0.00608514, -0.0055333986, 0.0970068, 0
275, 1707752557, 0.7898424, -0.13498263, 0.21993537, 0.5563785, -0.012615072, -0.026922023, 0.108249664, 0
276, 1707769224, 0.78966904, -0.1350435, 0.21986465, 0.5566378, -0.018174062, -0.032916196, 0.15581799, 0
277, 1707785891, 0.7897076, -0.13497175, 0.21977541, 0.55663586, -0.057582635, -0.011368316, 0.17751503, 0
278, 1707802558, 0.78963965, -0.134933, 0.21967861, 0.55677986, -0.023420023, 0.018060405, 0.18289089, 0
279, 1707819225, 0.7896147, -0.13489129, 0.21965344, 0.556835, -0.0035456978, 0.0062531102, 0.16834354, 0
280, 1707835892, 0.7896545, -0.13485712, 0.21967399, 0.55677885, -0.007582677, 0.06260162, 0.18544102, 0
281, 1707852559, 0.78967845, -0.13488849, 0.21972197, 0.55671835, 0.016775765, 0.055782463, 0.17185307, 0
282, 1707869226, 0.7897084, -0.13491908, 0.21977109, 0.5566492, 0.035534985, 0.024362354, 0.18949318, 0
283, 1707885893, 0.78973114, -0.13492358, 0.21974503, 0.55662596, 0.03099186, 8.034173E-4, 0.1584053, 0
284, 1707902560, 0.7897058, -0.13495654, 0.21970303, 0.5566704, 0.016156299, -0.00306738, 0.14046955, 0
285, 1707919227, 0.7896809, -0.13499466, 0.21966724, 0.5567106, -0.0034457876, -0.0065728454, 0.16623878, 0
286, 1707935894, 0.78970456, -0.13499439, 0.21961749, 0.556697, -0.015327065, -0.010376813, 0.18115425, 0
287, 1707952561, 0.78974295, -0.1349537, 0.21952093, 0.55669063, -0.028499467, 0.02476043, 0.16881561, 0
288, 1707969228, 0.78978026, -0.13494045, 0.21947998, 0.5566568, -0.023608891, 0.05454264, 0.1468134, 0
289, 1707985895, 0.7898383, -0.13493256, 0.21953264, 0.55655545, -0.0024234392, 0.037766203, 0.15931702, 0
290, 1708002562, 0.78984374, -0.13493809, 0.21953532, 0.5565454, 0.004851572, 0.001994406, 0.14854145, 0
291, 1708019229, 0.7898832, -0.13491869, 0.21954827, 0.556489, 0.015631825, 0.002449255, 0.15399551, 0
292, 1708035896, 0.79003805, -0.1348624, 0.21957064, 0.55627406, -0.011587024, 0.008273221, 0.13529396, 0
293, 1708052563, 0.7900268, -0.13490011, 0.21955924, 0.5562854, -0.028206218, -0.0070605506, 0.13254642, 0
294, 1708069230, 0.79000795, -0.13496643, 0.21954525, 0.5563016, -0.018281572, -0.020538382, 0.16300583, 0
295, 1708085897, 0.790065, -0.13492195, 0.21951474, 0.55624336, 0.0050772084, -0.057640415, 0.20038795, 0
296, 1708102564, 0.7901018, -0.13483517, 0.21943696, 0.55624276, 0.0012830761, -0.014136636, 0.15296745, 0
297, 1708119231, 0.7901646, -0.13471742, 0.21939927, 0.55619705, 0.014195643, 0.06625941, 0.13694286, 0
298, 1708135898, 0.7901348, -0.134723, 0.21947767, 0.55620694, 0.012137201, 0.06206027, 0.12144089, 0
299, 1708152565, 0.7901223, -0.13478343, 0.21957855, 0.55617034, 0.0039591966, 0.030666089, 0.15787697, 0
300, 1708169232, 0.790136, -0.1348076, 0.21966724, 0.55610996, -0.025073012, -0.04409855, 0.17083359, 0
301, 1708185899, 0.79016644, -0.13476266, 0.21964665, 0.5560858, -0.023767138, -0.01433098, 0.16350842, 0
302, 1708202566, 0.7901958, -0.13472293, 0.21963887, 0.55605674, -0.0048421845, -0.009492596, 0.18980217, 0
303, 1708219233, 0.7900965, -0.13473377, 0.21960263, 0.5562095, 3.7796042E-4, -0.030054558, 0.15681839, 0
304, 1708235900, 0.7901403, -0.1346581, 0.2195427, 0.55618954, 0.0111996755, 0.044679683, 0.14084435, 0
305, 1708252567, 0.7900501, -0.13467975, 0.21949385, 0.55633134, 9.4937126E-4, 0.05471899, 0.15896988, 0
306, 1708269234, 0.79003036, -0.13472895, 0.21952967, 0.5563336, -0.028537352, 0.0364591, 0.14095592, 0
307, 1708285901, 0.7900123, -0.13478307, 0.2195886, 0.5563227, -0.015318014, 0.028782658, 0.13900757, 0
308, 1708302568, 0.78996277, -0.13485865, 0.21968047, 0.5563385, -0.02029967, -0.011504882, 0.16544056, 0
309, 1708319235, 0.78992784, -0.13490832, 0.21968003, 0.5563762, -0.016601425, -0.0015955472, 0.15129566, 0
310, 1708335902, 0.7899444, -0.13488145, 0.21961963, 0.55638313, 0.008591838, -0.019895671, 0.15022087, 0
311, 1708352569, 0.78995776, -0.1348535, 0.21959609, 0.5563802, 0.005939633, -0.011337024, 0.13219643, 0
312, 1708369236, 0.79000205, -0.13482758, 0.21957886, 0.5563303, 0.024947846, 0.014774877, 0.13865852, 0
313, 1708385903, 0.7899057, -0.13489023, 0.21959382, 0.55644614, 0.015262694, 0.03945596, 0.15052128, 0
314, 1708402570, 0.78995514, -0.1348925, 0.2196349, 0.55635923, 0.012990909, 0.02781764, 0.18633652, 0
315, 1708419237, 0.789959, -0.13487582, 0.21965289, 0.5563505, -0.00344277, -0.0015752076, 0.19214725, 0
316, 1708435904, 0.7899897, -0.13485086, 0.21966027, 0.55631006, -0.008215331, 0.004039326, 0.19696808, 0
317, 1708452571, 0.7899807, -0.13482599, 0.21965134, 0.5563324, -0.010335015, 0.017005872, 0.16083431, 0
318, 1708469238, 0.789952, -0.13485031, 0.21964534, 0.5563697, -0.014017504, 0.036915623, 0.13021374, 0
319, 1708485905, 0.78991055, -0.13493794, 0.21965605, 0.55640304, -0.007714438, 0.0067600375, 0.1569376, 0
320, 1708502572, 0.7898829, -0.13498476, 0.21964556, 0.5564351, 0.019081524, -0.050221127, 0.17315102, 0
321, 1708519239, 0.7898953, -0.13495786, 0.21957615, 0.5564514, 0.0068232915, -0.017642437, 0.14142227, 0
322, 1708535906, 0.7897673, -0.13492917, 0.21946123, 0.5566854, -0.011549808, 6.220366E-4, 0.12817097, 0
323, 1708552573, 0.78973365, -0.13493307, 0.2194804, 0.5567246, -0.036963902, 0.017870866, 0.12110615, 0
324, 1708569240, 0.789698, -0.13497518, 0.21952099, 0.556749, -0.06323137, 5.9286813E-4, 0.12656403, 0
325, 1708585907, 0.78969955, -0.13497382, 0.21958663, 0.5567213, -0.005863639, 5.81469E-4, 0.20289803, 0
326, 1708602574, 0.7897077, -0.13494663, 0.21956679, 0.5567241, -0.031821873, 0.012297124, 0.20093822, 0
327, 1708619241, 0.7898228, -0.13489035, 0.21956132, 0.55657655, 0.0033865566, 0.0065311603, 0.16258049, 0
328, 1708635908, 0.7897372, -0.13491847, 0.2195122, 0.55671054, 0.02527831, 0.047505554, 0.16791153, 0
329, 1708652575, 0.7897326, -0.13494107, 0.21952163, 0.5567081, 0.033937313, 0.027366256, 0.16015625, 0
330, 1708669242, 0.7897083, -0.13498941, 0.21954109, 0.55672306, 0.02715973, 0.022432767, 0.1398964, 0
331, 1708685909, 0.78970987, -0.13502893, 0.21956502, 0.5567018, 0.003984677, -0.0024925047, 0.14518261, 0
332, 1708702576, 0.78978145, -0.135012, 0.21954219, 0.5566133, 0.0026656154, -0.036937863, 0.1679411, 0
333, 1708719243, 0.7897964, -0.1350185, 0.21949627, 0.5566085, -0.027455885, -0.01270403, 0.16464901, 0
334, 1708735910, 0.78982717, -0.13497044, 0.21944626, 0.55659616, -0.010624688, 0.0013724813, 0.15896797, 0
335, 1708752577, 0.78985363, -0.13493992, 0.21943115, 0.5565719, -0.03331438, 0.043763388, 0.15811539, 0
336, 1708769244, 0.78982764, -0.13496777, 0.21944922, 0.55659497, -0.024927394, 0.05418379, 0.15830803, 0
337, 1708785911, 0.7898307, -0.13498424, 0.21947862, 0.55657524, -0.0064291265, 0.050546672, 0.15057278, 0
338, 1708802578, 0.7898232, -0.13498901, 0.2194569, 0.55659324, -0.010679784, 0.026455887, 0.14715862, 0
339, 1708819245, 0.78982514, -0.13501906, 0.21942808, 0.55659455, 0.0071447035, -0.007312673, 0.1523447, 0
340, 1708835912, 0.7898336, -0.1350095, 0.219384, 0.5566021, 0.018695965, -0.050969224, 0.1792078, 0
341, 1708852579, 0.78990304, -0.13494489, 0.21931578, 0.5565462, 0.008258133, -0.014145576, 0.15047073, 0
342, 1708869246, 0.7899182, -0.13489762, 0.21927403, 0.55655265, 8.66448E-4, 4.7451802E-4, 0.1628952, 0
343, 1708885913, 0.78999716, -0.13485932, 0.21929574, 0.5564413, -0.025765792, 0.02009851, 0.1700325, 0
344, 1708902580, 0.7900985, -0.1348702, 0.21936972, 0.55626565, -0.010312217, 0.051536836, 0.16193008, 0
345, 1708919247, 0.790078, -0.13491467, 0.21940829, 0.55626875, 0.0019612145, 0.047848426, 0.16285229, 0
346, 1708935914, 0.7900332, -0.13493481, 0.21938767, 0.55633557, 0.018095497, 0.014135183, 0.1724596, 0
347, 1708952581, 0.7901058, -0.13487348, 0.21934542, 0.556264, 0.023793066, 0.03384467, 0.1427126, 0
348, 1708969248, 0.7901441, -0.13484892, 0.21932124, 0.5562251, 0.0010811322, -0.003677347, 0.15029049, 0
349, 1708985915, 0.7901529, -0.13485582, 0.21930414, 0.5562176, -0.034449045, -0.006786859, 0.12815094, 0
350, 1709002582, 0.7901502, -0.13488257, 0.2193049, 0.55621463, -0.021026088, -0.023845255, 0.15687752, 0
351, 1709019249, 0.79015476, -0.1349009, 0.21930903, 0.5562021, -0.02166947, -0.028235497, 0.166543, 0
352, 1709035916, 0.7901894, -0.13484235, 0.21929839, 0.5561713, -0.019165566, 0.017412553, 0.16359997, 0
353, 1709052583, 0.79017377, -0.13482739, 0.21929191, 0.55619967, -0.018536152, 0.041334026, 0.13906288, 0
354, 1709069250, 0.7902239, -0.1347993, 0.21933275, 0.55611914, 0.00614493, 0.041538093, 0.13840675, 0
355, 1709085917, 0.79021996, -0.13481802, 0.2193861, 0.5560992, 0.026609665, -0.01059999, 0.16791439, 0
356, 1709102584, 0.7902352, -0.13479988, 0.2194109, 0.5560721, 0.024384258, -0.039966464, 0.16435814, 0
357, 1709119251, 0.7902087, -0.13476735, 0.21936841, 0.55613446, 0.024978243, -0.0283515, 0.16749763, 0
358, 1709135918, 0.790194, -0.13474412, 0.21933429, 0.5561746, 4.806646E-4, 0.030416537, 0.16488838, 0
359, 1709152585, 0.790188, -0.134765, 0.21932104, 0.5561832, -0.024604976, 0.050083555, 0.14214516, 0
360, 1709169252, 0.7900959, -0.1348808, 0.2193066, 0.5562914, -0.016293759, 0.04252792, 0.1573658, 0
361, 1709185919, 0.78987604, -0.13501874, 0.21923976, 0.5565965, -0.008169734, 0.027545178, 0.17141724, 0
362, 1709202586, 0.7898369, -0.13501808, 0.21915804, 0.5566845, 0.0048477724, -0.0021653934, 0.17889118, 0
363, 1709219253, 0.7899061, -0.13494259, 0.21908121, 0.55663466, -0.0019668022, -0.02417829, 0.15511799, 0
364, 1709235920, 0.7899408, -0.13486566, 0.21900368, 0.5566349, 0.0037471948, 0.030807238, 0.1348381, 0
365, 1709252587, 0.7900613, -0.13484177, 0.2190421, 0.55645454, 0.010177104, 0.011266729, 0.123254776, 0
366, 1709269254, 0.79007584, -0.13490479, 0.21911134, 0.5563913, -0.0035192114, -0.0067879767, 0.14070034, 0
367, 1709285921, 0.7901016, -0.13494971, 0.21916734, 0.5563218, 0.0030002145, -0.011767175, 0.17521095, 0
368, 1709302588, 0.7900866, -0.13499059, 0.21913883, 0.55634433, -0.0010093845, -0.0061318544, 0.17687035, 0
369, 1709319255, 0.7901224, -0.13498096, 0.21906786, 0.5563238, 0.008543448, 0.008728852, 0.13801765, 0
370, 1709335922, 0.79016054, -0.13493504, 0.21900986, 0.55630356, 0.020079287, -0.020507649, 0.15298653, 0
371, 1709352589, 0.79019547, -0.13489246, 0.21901834, 0.55626094, 0.013229396, 0.012190844, 0.14680958, 0
372, 1709369256, 0.79019356, -0.13484684, 0.21905051, 0.556262, 0.002226636, 0.015151049, 0.14830875, 0
373, 1709385923, 0.7902127, -0.13485482, 0.21910818, 0.5562102, -0.026024507, 0.011851216, 0.16357994, 0
374, 1709402590, 0.7901861, -0.13490947, 0.21918237, 0.55620545, -0.03619904, 0.012457383, 0.16365337, 0
375, 1709419257, 0.79010147, -0.1349709, 0.21918021, 0.5563116, -0.030308021, -0.006885205, 0.18199825, 0
376, 1709435924, 0.79007673, -0.134986, 0.219147, 0.55635625, 9.790985E-4, 0.011543439, 0.17558193, 0
377, 1709452591, 0.79004306, -0.13498208, 0.21907419, 0.55643356, 0.014744703, 0.0077462886, 0.14727783, 0
378, 1709469258, 0.7900425, -0.13497134, 0.21902883, 0.55645484, 0.02127508, 0.02156956, 0.13943005, 0
379, 1709485925, 0.7899988, -0.13496925, 0.21899596, 0.55653024, 0.021040503, 0.03259601, 0.14374733, 0
380, 1709502592, 0.7899095, -0.1350177, 0.21899217, 0.5566468, 0.0032722296, 0.019809283, 0.16952133, 0
381, 1709519259, 0.79002494, -0.13501556, 0.21903338, 0.55646735, -0.006574522, 0.016342374, 0.17640018, 0
382, 1709535926, 0.7900002, -0.13510232, 0.21902731, 0.55648375, -0.025539484, 0.030745212, 0.16977215, 0
383, 1709552593, 0.78996164, -0.13518517, 0.21898018, 0.5565369, -0.012306735, 0.034744754, 0.14267921, 0
384, 1709569260, 0.790005, -0.13521858, 0.21894898, 0.5564795, 0.0015290522, 0.023788372, 0.15776539, 0
385, 1709585927, 0.78998035, -0.13524415, 0.21891025, 0.55652356, -0.04267041, -0.008380618, 0.16817284, 0
386, 1709602594, 0.7899034, -0.13530008, 0.21884745, 0.5566438, -0.00958323, 0.0067927823, 0.14151287, 0
387, 1709619261, 0.7899262, -0.1353133, 0.2188754, 0.5565974, 0.011575848, 0.020147905, 0.14858913, 0
388, 1709635928, 0.78982437, -0.1354174, 0.21886313, 0.5567214, 9.5015357E-4, 0.016259786, 0.15189266, 0
389, 1709652595, 0.78970957, -0.13555825, 0.21889989, 0.55683553, -0.004627389, -0.039582804, 0.1809206, 0
390, 1709669262, 0.78973347, -0.13555737, 0.21888055, 0.5568093, 0.0085490355, -0.06515391, 0.20967484, 0
391, 1709685929, 0.7898267, -0.13547927, 0.21879102, 0.5567312, 0.059440922, 0.0026784674, 0.16476822, 0
392, 1709702596, 0.78987676, -0.135422, 0.21872093, 0.5567017, -3.8667742E-4, 0.07573781, 0.12299347, 0
393, 1709719263, 0.78989744, -0.13541144, 0.21871948, 0.5566757, -0.009671071, 0.0732766, 0.15159893, 0
394, 1709735930, 0.7898519, -0.13546601, 0.2188021, 0.55669427, -0.010382176, 0.015807396, 0.16706276, 0
395, 1709752597, 0.7897962, -0.13551013, 0.21883602, 0.5567493, -0.016552476, -0.03913086, 0.15818024, 0
396, 1709769264, 0.7898217, -0.13546653, 0.21880491, 0.55673605, -0.011201017, -0.039354037, 0.1564722, 0
397, 1709785931, 0.7898564, -0.1354032, 0.21875565, 0.55672157, -0.034530405, -0.017061973, 0.12212467, 0
398, 1709802598, 0.78990674, -0.13534485, 0.21874432, 0.55666876, -0.0364867, -9.852451E-4, 0.1272583, 0
399, 1709819265, 0.7899085, -0.13533281, 0.21877515, 0.55665714, -0.03782029, 0.012146477, 0.11684799, 0
400, 1709835932, 0.7898706, -0.1353649, 0.21884674, 0.5566748, -0.013994258, 0.028178614, 0.16317654, 0
401, 1709852599, 0.7898355, -0.1354134, 0.21889909, 0.5566923, -0.013908653, -0.018343037, 0.15550327, 0
402, 1709869266, 0.7898044, -0.13541225, 0.21889317, 0.55673915, -5.1430333E-4, -0.012194085, 0.18704891, 0
403, 1709885933, 0.7898423, -0.13537352, 0.21883915, 0.55671614, 0.0038070963, 0.0025495004, 0.16887379, 0
404, 1709902600, 0.78986526, -0.13532111, 0.21875386, 0.5567298, -0.013372109, 0.017997151, 0.15590096, 0
405, 1709919267, 0.7897687, -0.13536696, 0.21864074, 0.5568999, -0.035017326, 0.0053760456, 0.19581413, 0
406, 1709935934, 0.7897554, -0.13537967, 0.21851724, 0.5569642, -0.028393745, 0.009309761, 0.2563715, 0
407, 1709952601, 0.78978366, -0.13539612, 0.21831314, 0.55700016, 8.689066E-4, 0.013562766, 0.27820206, 0
408, 1709969268, 0.7898509, -0.13542815, 0.21807826, 0.5569891, -0.0047494266, 0.07549385, 0.24454117, 0
409, 1709985935, 0.78986543, -0.13554771, 0.21788596, 0.5570144, 0.053157303, 0.08443716, 0.1603899, 0
410, 1710002602, 0.78985006, -0.13574673, 0.21777128, 0.5570327, 0.07706459, 0.050519068, 0.10621548, 0
411, 1710019269, 0.7897945, -0.13595311, 0.21768017, 0.5570968, 0.05048688, -0.010216777, 0.11730194, 0
412, 1710035936, 0.7898031, -0.13611257, 0.21762653, 0.5570667, -0.038802743, -0.05410053, 0.108439445, 0
413, 1710052603, 0.78968537, -0.13627656, 0.21753351, 0.55722976, -0.08660412, -0.057639297, 0.1179409, 0
414, 1710069270, 0.7896531, -0.13641632, 0.21751893, 0.55724686, -0.09872645, -0.017500393, 0.08781147, 0
415, 1710085937, 0.7896523, -0.1365357, 0.21753061, 0.5572143, -0.07288121, -0.025899898, 0.12420368, 0
416, 1710102604, 0.7895998, -0.13664196, 0.21745224, 0.55729324, -0.07500927, -0.027423363, 0.12732983, 0
417, 1710119271, 0.78950596, -0.13677454, 0.21740283, 0.55741286, -0.030406926, -0.017994134, 0.13772202, 0
418, 1710135938, 0.78938615, -0.13689609, 0.21738188, 0.5575608, -0.05604241, -0.0030902901, 0.14411259, 0
419, 1710152605, 0.78936976, -0.13701844, 0.21747507, 0.55751777, -0.10251455, 0.05116301, 0.13901615, 0
420, 1710169272, 0.789172, -0.13730071, 0.2176756, 0.5576499, -0.063096926, 0.016378805, 0.2172184, 0
421, 1710185939, 0.78891355, -0.137645, 0.21786328, 0.5578574, 0.0021599175, 0.07268574, 0.16689873, 0
422, 1710202606, 0.78876084, -0.13777998, 0.21795923, 0.55800265, 0.10352372, 0.06684703, 0.12781811, 0
423, 1710219273, 0.78860706, -0.13795507, 0.21801755, 0.5581537, 0.08593604, 0.016594607, 0.13318825, 0
424, 1710235940, 0.7883311, -0.13823615, 0.2181021, 0.55844104, 0.060576256, 0.008227065, 0.1198082, 0
425, 1710252607, 0.78802305, -0.1385141, 0.21822372, 0.55875957, 0.08699035, 0.08349963, 0.14043903, 0
426, 1710269274, 0.7877934, -0.13869135, 0.21828361, 0.55901587, 0.07881123, 0.07022464, 0.18767548, 0
427, 1710285941, 0.78772354, -0.13875146, 0.21827543, 0.5591024, 0.072921775, 0.002400529, 0.20624065, 0
428, 1710302608, 0.7875485, -0.13881923, 0.21822111, 0.5593534, 0.058277875, 0.039587498, 0.15312862, 0
429, 1710319275, 0.7873852, -0.1388955, 0.21820526, 0.5595706, 0.016900597, 0.04584776, 0.12579727, 0
430, 1710335942, 0.78725934, -0.13895, 0.21818902, 0.55974036, -0.001385445, 0.064081945, 0.114115715, 0
431, 1710352609, 0.78712875, -0.13899715, 0.21818313, 0.55991465, -0.03286814, 0.029687997, 0.1372776, 0
432, 1710369276, 0.78697175, -0.13903524, 0.21820308, 0.56011826, -0.06089499, -0.023397895, 0.15789318, 0
433, 1710385943, 0.7868649, -0.13906392, 0.21822698, 0.56025183, -0.093584985, -0.050627586, 0.18637466, 0
434, 1710402610, 0.78678846, -0.13907938, 0.21828082, 0.5603343, -0.05576447, -0.015592935, 0.12459755, 0
435, 1710419277, 0.78674054, -0.13906269, 0.21835703, 0.5603759, -0.028025396, 0.005164379, 0.106072426, 0
436, 1710435944, 0.78662235, -0.13914694, 0.21850757, 0.56046224, 0.0062171244, -0.0071819182, 0.124510765, 0
437, 1710452611, 0.7865222, -0.13920571, 0.21861427, 0.56054664, -0.008278473, -0.07549575, 0.14121342, 0
438, 1710469278, 0.7864193, -0.13922387, 0.21866937, 0.56066525, 0.0016246039, -0.06812004, 0.13100147, 0
439, 1710485945, 0.78633004, -0.13924572, 0.21876141, 0.5607488, -0.022372529, -0.01632885, 0.12847424, 0
440, 1710502612, 0.7862295, -0.13931908, 0.21891189, 0.56081295, -0.04057833, 0.03810326, 0.12653351, 0
441, 1710519279, 0.7860875, -0.13947427, 0.21909358, 0.5609024, -0.063001595, 0.018603766, 0.116906166, 0
442, 1710535946, 0.78587115, -0.13964075, 0.21935704, 0.56106126, -0.034090083, -0.027543167, 0.16447163, 0
443, 1710552613, 0.7856436, -0.13979447, 0.21965769, 0.56122416, -0.008755561, -0.018855888, 0.10700321, 0
444, 1710569280, 0.78541654, -0.13988918, 0.21987359, 0.5614334, -0.064733155, 0.02108163, 0.032057762, 0
445, 1710585947, 0.78503424, -0.1401424, 0.22021073, 0.5617728, -0.110197365, 0.0316358, 0.09724522, 0
446, 1710602614, 0.7846563, -0.14053279, 0.22072196, 0.56200284, -0.05542138, 0.010206495, 0.22445011, 0
447, 1710619281, 0.7844448, -0.14068842, 0.22103305, 0.5621368, 0.016236987, -0.032981236, 0.30723858, 0
448, 1710635948, 0.78433007, -0.14064358, 0.2211674, 0.562255, 0.019298332, -0.10130066, 0.2926693, 0
449, 1710652615, 0.7841157, -0.14069618, 0.22116901, 0.56254023, -0.05202454, -0.020698082, 0.16727924, 0
450, 1710669282, 0.78395194, -0.14085741, 0.22127306, 0.5626871, -0.10724118, 0.09728636, 0.12310791, 0
451, 1710685949, 0.78368217, -0.14113483, 0.22140583, 0.56294113, -0.054929987, 0.04027815, 0.18779755, 0
452, 1710702616, 0.7834339, -0.14135477, 0.22140291, 0.5632326, 0.024265125, -0.005570837, 0.20459366, 0
453, 1710719283, 0.7833007, -0.1414459, 0.2213041, 0.5634336, 0.038623486, -0.023767473, 0.16744328, 0
454, 1710735950, 0.78315943, -0.14145434, 0.22122407, 0.5636593, 0.04766358, 0.028899778, 0.117025375, 0
455, 1710752617, 0.7830103, -0.14148232, 0.22124285, 0.5638522, 0.056485076, 0.09688873, 0.098423004, 0
456, 1710769284, 0.7828212, -0.14157905, 0.2214008, 0.5640284, 0.07530341, 0.10623135, 0.12800026, 0
457, 1710785951, 0.7825124, -0.1418214, 0.22165985, 0.5642942, 0.07482811, 0.07329828, 0.16189003, 0
458, 1710802618, 0.7822813, -0.14208929, 0.22192243, 0.5644441, -0.02530122, 0.024730591, 0.14000034, 0
459, 1710819285, 0.782006, -0.14242435, 0.22212677, 0.56466055, -0.07172274, 0.0071602375, 0.14820004, 0
460, 1710835952, 0.78181386, -0.14274485, 0.222213, 0.5648118, -0.056771733, 0.02315963, 0.21011162, 0
461, 1710852619, 0.78160113, -0.14301105, 0.22211687, 0.5650768, -0.017327283, -0.079198465, 0.35049152, 0
462, 1710869286, 0.7814743, -0.14306736, 0.2218789, 0.56533146, 0.069825895, -0.062629, 0.33608913, 0
463, 1710885953, 0.78149474, -0.14303117, 0.22157396, 0.5654316, 0.08584987, 0.0748841, 0.21953297, 0
464, 1710902620, 0.7815153, -0.14302197, 0.22136927, 0.5654859, 0.105953075, 0.06422388, 0.1302023, 0
465, 1710919287, 0.7815135, -0.14306337, 0.22131817, 0.56549793, 0.07400481, 0.0832198, 0.13101101, 0
466, 1710935954, 0.7813925, -0.14322518, 0.22134513, 0.5656136, -8.4599655E-4, 0.017461391, 0.18167877, 0
467, 1710952621, 0.78135866, -0.14337432, 0.221306, 0.56563807, -0.033415634, -0.049572714, 0.15322399, 0
468, 1710969288, 0.78130263, -0.14342019, 0.22125708, 0.5657228, -0.020321015, -0.040694334, 0.16705418, 0
469, 1710985955, 0.78126985, -0.14339377, 0.22114266, 0.5658195, -0.012851548, -0.027989857, 0.112350464, 0
470, 1711002622, 0.7811903, -0.14348668, 0.22110073, 0.5659221, -0.050492916, 0.034805324, 0.09648323, 0
471, 1711019289, 0.78113586, -0.14369394, 0.22124942, 0.5658866, -0.040248312, 0.0424669, 0.137681, 0
472, 1711035956, 0.781003, -0.14388472, 0.2212363, 0.5660267, -0.028955434, -0.032685082, 0.2050581, 0
473, 1711052623, 0.7809482, -0.14398392, 0.22100002, 0.5661694, -0.033349585, -0.026669119, 0.19970798, 0
474, 1711069290, 0.78088665, -0.14410998, 0.22057892, 0.5663863, -0.007945662, 0.042021666, 0.18152142, 0
475, 1711085957, 0.78081053, -0.14433348, 0.22019753, 0.5665826, -8.848878E-4, 0.113819614, 0.14288807, 0
476, 1711102624, 0.78073484, -0.1446329, 0.21989135, 0.56672937, -0.024620399, 0.08166146, 0.08337593, 0
477, 1711119291, 0.78058046, -0.14500794, 0.21960731, 0.5669562, -0.03239116, 0.071121484, 0.08827877, 0
478, 1711135958, 0.7803778, -0.145446, 0.2193382, 0.5672272, -0.060161643, 0.0021295196, 0.15409756, 0
479, 1711152625, 0.78017575, -0.14590968, 0.21917668, 0.56744844, -0.033059467, -0.018227147, 0.19315052, 0
480, 1711169292, 0.7800044, -0.14632995, 0.21877076, 0.5677324, -0.030911842, 0.024809714, 0.18017292, 0
481, 1711185959, 0.7798461, -0.14673902, 0.21803567, 0.5681271, -0.014314887, 0.11041998, 0.13689041, 0
482, 1711202626, 0.77958953, -0.14727044, 0.21728326, 0.5686296, 0.035845555, 0.05830805, 0.11601639, 0
483, 1711219293, 0.77929556, -0.14790307, 0.21679433, 0.569055, 0.04456446, -0.010050596, 0.10169029, 0
484, 1711235960, 0.77909046, -0.1483951, 0.21641678, 0.56935114, -0.00847684, -0.031389825, 0.16401196, 0
485, 1711252627, 0.77894366, -0.14870556, 0.21580471, 0.56970334, -4.988809E-4, -0.036782857, 0.21422577, 0
486, 1711269294, 0.7787749, -0.14896196, 0.21515557, 0.57011265, 0.024841454, -0.028701633, 0.21176338, 0
487, 1711285961, 0.7786186, -0.14920756, 0.21472105, 0.5704257, 0.07277213, 0.05095235, 0.12305927, 0
488, 1711302628, 0.7784594, -0.14959198, 0.21481456, 0.5705067, 0.07379828, 0.1277095, 0.052179337, 0
489, 1711319295, 0.77810824, -0.15028146, 0.21544018, 0.57056856, 0.034694687, 0.06534837, 0.10702324, 0
490, 1711335962, 0.7777458, -0.15104254, 0.21631946, 0.57052916, 0.012448219, -0.12791501, 0.19994736, 0
491, 1711352629, 0.777423, -0.15190798, 0.21683498, 0.57054347, -0.06353725, -0.36311188, 0.032456398, 0
492, 1711369296, 0.7776319, -0.15120083, 0.2165171, 0.5705675, 0.32684165, -0.26243025, 0.3772688, 0
493, 1711385963, 0.77797323, -0.15013798, 0.21523447, 0.570868, -0.18605609, 0.07947931, 0.20595455, 0
494, 1711402630, 0.77830774, -0.14956181, 0.21475123, 0.57074535, -0.09477173, 0.1599081, -0.008091927, 0
495, 1711419297, 0.7781899, -0.14961839, 0.21505716, 0.5707761, -0.036090862, 0.16450855, 0.091573715, 0
496, 1711435964, 0.77797693, -0.14973027, 0.21582013, 0.5707491, -0.009072503, -0.012979509, 0.25817013, 0
497, 1711452631, 0.77786946, -0.14961484, 0.21628538, 0.5707497, -0.067776054, -0.020428749, 0.26852322, 0
498, 1711469298, 0.7779204, -0.14930157, 0.21676125, 0.57058173, -0.064222425, -0.13082214, 0.2667427, 0
499, 1711485965, 0.77797353, -0.14890042, 0.21697575, 0.57053274, -0.13692561, -0.1032337, 0.09426117, 0
500, 1711502632, 0.77825683, -0.14823769, 0.21678017, 0.57039344, 0.041531164, 0.050069697, 0.118169785, 0
501, 1711519299, 0.77856, -0.14738886, 0.2163112, 0.57037747, 0.1064058, 0.07669355, 0.18860531, 0
502, 1711535966, 0.7787189, -0.14674461, 0.21584457, 0.5705036, 0.05469105, 0.18314037, 0.20431232, 0
503, 1711552633, 0.77878916, -0.14648242, 0.21552655, 0.5705952, -0.008297807, 0.2349481, 0.12281227, 0
504, 1711569300, 0.77887976, -0.14645463, 0.21530926, 0.5705605, 0.030403461, 0.107341535, 0.1242218, 0
505, 1711585967, 0.77888864, -0.14656661, 0.21500972, 0.5706325, 0.027176047, 0.054140873, 0.12556267, 0
506, 1711602634, 0.7789192, -0.14663923, 0.21451212, 0.5707594, -0.049158547, -0.05135199, 0.12639809, 0
507, 1711619301, 0.778992, -0.14678143, 0.21372868, 0.57091767, -0.07636566, 0.058985963, 0.09782219, 0
508, 1711635968, 0.7791229, -0.14692649, 0.21288975, 0.5710152, -0.08197762, -0.12905717, 0.029151917, 0
509, 1711652635, 0.7791949, -0.14700174, 0.21221177, 0.57114977, -0.0051203463, -0.089407414, 0.111803055, 0
510, 1711669302, 0.77918124, -0.14701986, 0.21159337, 0.5713933, -0.049747948, -0.10173024, 0.12948513, 0
511, 1711685969, 0.77913105, -0.14713779, 0.21105056, 0.57163197, -0.06923179, -0.028436435, 0.17488194, 0
512, 1711702636, 0.77916765, -0.14731148, 0.21027777, 0.5718221, -0.06493342, 0.14705576, 0.19337654, 0
513, 1711719303, 0.77926564, -0.14743753, 0.20919882, 0.572052, -0.07483247, 0.18722808, 0.09480572, 0
514, 1711735970, 0.7792264, -0.14785206, 0.20850098, 0.57225263, -0.010066688, 0.0076829228, 0.16935539, 0
515, 1711752637, 0.77912986, -0.14818864, 0.20799194, 0.5724826, 0.05388115, -0.026374081, 0.24640083, 0
516, 1711769304, 0.77897966, -0.14841524, 0.2073952, 0.57284486, 0.024155045, 0.019428082, 0.24978542, 0
517, 1711785971, 0.7789088, -0.14892475, 0.20643951, 0.5731538, 0.024759201, 0.22236891, 0.14763165, 0
518, 1711802638, 0.77906674, -0.1492806, 0.2053579, 0.5732353, 0.0014770854, 0.11744857, 0.031172752, 0
519, 1711819305, 0.7789962, -0.15011074, 0.20438416, 0.5734622, 0.052218772, 0.079392806, 0.17900181, 0
520, 1711835972, 0.7789517, -0.15080146, 0.20355949, 0.57363486, 0.10300706, -0.06614989, 0.28367233, 0
521, 1711852639, 0.7789468, -0.15135466, 0.20264292, 0.5738201, 0.08149506, -0.045897715, 0.4305935, 0
522, 1711869306, 0.7791257, -0.15142204, 0.20117633, 0.57407564, 0.061017696, -0.03679828, 0.45355415, 0
523, 1711885973, 0.7793808, -0.15165171, 0.19982168, 0.574142, -0.021783462, -0.07831268, 0.3167305, 0
524, 1711902640, 0.77966577, -0.15164907, 0.198546, 0.5741982, -0.013003313, 0.087167926, 0.19591236, 0
525, 1711919307, 0.77991843, -0.15153398, 0.19763902, 0.5741984, 0.07695171, -0.073748656, 0.042292595, 0
526, 1711935974, 0.7799181, -0.15140453, 0.19750634, 0.5742785, 0.3191489, -0.17996648, 0.28040695, 0
527, 1711952641, 0.77980226, -0.1509267, 0.19788827, 0.57443005, 0.4734399, -0.21750101, 0.5668144, 0
528, 1711969308, 0.7795833, -0.15002693, 0.19846854, 0.5747629, 0.4625393, -0.24715906, 0.7066927, 0
529, 1711985975, 0.77920604, -0.14869833, 0.19925345, 0.5753476, 0.34245145, -0.33813128, 0.91747475, 0
530, 1712002642, 0.77867734, -0.14669424, 0.20017716, 0.5762565, 0.1882225, -0.43779984, 1.0846663, 0
531, 1712019309, 0.77808625, -0.14376709, 0.20084032, 0.5775606, -0.01821776, -0.35121977, 1.1783638, 0
532, 1712035976, 0.77743113, -0.13978417, 0.20106633, 0.57933915, -0.30991447, -0.3420496, 1.2116604, 0
533, 1712052643, 0.77680206, -0.13456604, 0.20110309, 0.5814018, -0.2614992, -0.17847475, 1.1995916, 0
534, 1712069310, 0.77596277, -0.12878372, 0.20088878, 0.583901, -0.22181123, 0.0053883386, 0.9298029, 0
535, 1712085977, 0.77469015, -0.12279621, 0.200862, 0.5868824, -0.1832757, 0.20895125, 0.68355274, 0
536, 1712102644, 0.7729571, -0.11694275, 0.20128798, 0.5902075, -0.20234773, 0.03978609, 0.6943674, 0
537, 1712119311, 0.7708469, -0.111001246, 0.20204294, 0.5938456, -0.14611153, 0.065915644, 0.7765808, 0
538, 1712135978, 0.7682496, -0.105080806, 0.20300612, 0.597946, -0.12571017, 0.07778748, 0.76873684, 0
539, 1712152645, 0.76547545, -0.09913076, 0.20421438, 0.6020941, -0.0948, 0.1341024, 0.62123585, 0
540, 1712169312, 0.7623747, -0.093173936, 0.20546006, 0.606539, -0.021016588, 0.04326166, 0.5112963, 0
541, 1712185979, 0.7594679, -0.08674334, 0.20670068, 0.61070365, 0.021742111, -0.11650439, 0.46530247, 0
542, 1712202646, 0.7558602, -0.08021254, 0.20769347, 0.61571485, 0.081335805, -0.31837505, 0.52178, 0
543, 1712219313, 0.752207, -0.072957374, 0.20828693, 0.62086934, 0.17472689, -0.3076924, 0.453907, 0
544, 1712235980, 0.74885166, -0.065063216, 0.20853539, 0.6257005, 0.15804087, -0.19718955, 0.32612228, 0
545, 1712252647, 0.7446094, -0.057380266, 0.2087663, 0.63141185, 0.09813571, -0.1350182, 0.11620712, 0
546, 1712269314, 0.739998, -0.050065964, 0.20933251, 0.63724124, 0.09098374, -0.05046769, -0.015832901, 0
547, 1712285981, 0.73558426, -0.043037683, 0.21031298, 0.64252025, 0.07721713, -0.031510353, -0.005979538, 0
548, 1712302648, 0.7311977, -0.03617336, 0.21160235, 0.6475076, 0.10543899, -0.11247535, -0.04185009, 0
549, 1712319315, 0.72676575, -0.029426908, 0.21286832, 0.6524053, 0.15442957, -0.20754483, -0.0033893585, 0
550, 1712335982, 0.7223819, -0.022451388, 0.21398015, 0.65717036, 0.20020759, -0.2659478, 0.03785324, 0
551, 1712352649, 0.7178954, -0.01532451, 0.21503694, 0.66192937, 0.28227025, -0.1579337, 0.076218605, 0
552, 1712369316, 0.71344054, -0.008007947, 0.21607819, 0.66651976, 0.29741326, -0.1966038, 0.09241581, 0
553, 1712385983, 0.7088153, -2.5487988E-4, 0.21720326, 0.67112124, 0.3222858, -0.19756845, 0.09493828, 0
554, 1712402650, 0.7040009, 0.0078557115, 0.21837072, 0.67574817, 0.23727924, -0.16597195, 0.031550407, 0
555, 1712419317, 0.6989781, 0.015986487, 0.21986057, 0.68032026, 0.27637756, -0.16654414, 0.02701664, 0
556, 1712435984, 0.6937245, 0.024230314, 0.22158389, 0.6848795, 0.19338888, -0.11872399, 0.025357246, 0
557, 1712452651, 0.68839455, 0.032211207, 0.22354753, 0.6892764, 0.033983693, -0.06775729, -0.03366947, 0
558, 1712469318, 0.68313056, 0.04019816, 0.22565974, 0.6933934, -0.11355207, 0.13043198, -0.170887, 0
559, 1712485985, 0.6779435, 0.048054278, 0.22783384, 0.69726264, -0.19147795, 0.18899816, -0.21146297, 0
560, 1712502652, 0.6728436, 0.05569116, 0.23004274, 0.7008997, -0.18423793, 0.1969825, -0.1978426, 0
561, 1712519319, 0.66787875, 0.06311923, 0.23219594, 0.7043005, -0.17564252, 0.24165028, -0.1997652, 0
562, 1712535986, 0.6630587, 0.07003143, 0.2341471, 0.70754796, -0.2463609, 0.33839005, -0.2329874, 0
563, 1712552653, 0.6584801, 0.07648076, 0.23593135, 0.71055686, -0.30755013, 0.37714323, -0.23062706, 0
564, 1712569320, 0.6539093, 0.082215436, 0.23782931, 0.7134987, -0.32264072, 0.32094386, -0.19830894, 0
565, 1712585987, 0.6495964, 0.087609254, 0.23947765, 0.71624, -0.30416906, 0.27841264, -0.13028431, 0
566, 1712602654, 0.64559877, 0.092848174, 0.24089687, 0.7187144, -0.20952372, 0.2594638, -0.14096451, 0
567, 1712619321, 0.64185625, 0.09801567, 0.24197292, 0.721015, -0.103745885, 0.28411055, -0.1600523, 0
568, 1712635988, 0.63841486, 0.10328402, 0.24289328, 0.7230228, 0.026278082, 0.12155003, -0.14633465, 0
569, 1712652655, 0.6351648, 0.10871011, 0.24359626, 0.72485083, 0.086103335, -0.013364902, -0.097052574, 0
570, 1712669322, 0.63224113, 0.11433986, 0.24416235, 0.7263487, 0.110962786, -0.041257754, -0.050463676, 0
571, 1712685989, 0.62952065, 0.11995392, 0.24473356, 0.72761285, 0.16601838, -0.013769683, -0.110051155, 0
572, 1712702656, 0.62672555, 0.12526044, 0.24551365, 0.7288677, 0.20965639, -0.059203107, -0.14807796, 0
573, 1712719323, 0.6239775, 0.13035576, 0.24650495, 0.7299965, 0.29168397, -0.03888539, -0.20168686, 0
574, 1712735990, 0.621435, 0.1352795, 0.24760878, 0.73089546, 0.26567444, 0.021026758, -0.24156857, 0
575, 1712752657, 0.61894417, 0.14003825, 0.2488509, 0.73169035, 0.17323953, 0.036091253, -0.379817, 0
576, 1712769324, 0.6166005, 0.14448802, 0.2501713, 0.7323534, 0.11923868, 0.09445356, -0.4694929, 0
577, 1712785991, 0.6145137, 0.14848873, 0.2510923, 0.73299164, -0.031738617, 0.2300344, -0.489645, 0
578, 1712802658, 0.6127327, 0.1519552, 0.25186428, 0.7335073, -0.058063637, 0.25835314, -0.5183315, 0
579, 1712819325, 0.61113423, 0.15485969, 0.25248212, 0.73402065, -0.045083456, 0.12206221, -0.50319576, 0
580, 1712835992, 0.60968924, 0.15724462, 0.25307333, 0.73451155, -0.003155891, 0.14936231, -0.49223423, 0
581, 1712852659, 0.60850316, 0.15938923, 0.2534633, 0.73489827, -0.020027766, 0.28655815, -0.4647255, 0
582, 1712869326, 0.6074929, 0.1610513, 0.25362664, 0.7353154, -0.10926263, 0.26908618, -0.38432598, 0
583, 1712885993, 0.6066542, 0.16215779, 0.2536182, 0.7357673, -0.18543284, 0.28321338, -0.30436707, 0
584, 1712902660, 0.6061912, 0.16293791, 0.25332242, 0.7360784, -0.24731866, 0.3148303, -0.2204256, 0
585, 1712919327, 0.6059776, 0.1632468, 0.25292614, 0.73632216, -0.19869833, 0.3389574, -0.26094055, 0
586, 1712935994, 0.6060825, 0.1632538, 0.2523961, 0.73641604, -0.15066797, 0.39816627, -0.2594347, 0
587, 1712952661, 0.60650116, 0.162948, 0.25171068, 0.73637366, -0.19211352, 0.38369894, -0.24015236, 0
588, 1712969328, 0.60724694, 0.16238675, 0.2509401, 0.7361461, -0.2240619, 0.4519576, -0.16894817, 0
589, 1712985995, 0.60819006, 0.16152121, 0.25028166, 0.7357819, -0.19787155, 0.36775687, -0.13732147, 0
590, 1713002662, 0.6092704, 0.16032422, 0.2496528, 0.7353635, -0.17509055, 0.31072435, -0.06361961, 0
591, 1713019329, 0.61047304, 0.15880519, 0.24919945, 0.7348492, -0.08149875, 0.3633592, -0.047664642, 0
592, 1713035996, 0.6118955, 0.15721825, 0.24867609, 0.7341843, -0.11184052, 0.30566475, -0.036714554, 0
593, 1713052663, 0.61365664, 0.15553105, 0.24806258, 0.7332807, -0.18082969, 0.3499301, -0.06829548, 0
594, 1713069330, 0.6156678, 0.15350777, 0.24743779, 0.73223156, -0.20947142, 0.30414146, -0.08961201, 0
595, 1713085997, 0.61793554, 0.15114067, 0.24677618, 0.7310361, -0.12877184, 0.3050505, -0.0924139, 0
596, 1713102664, 0.62037, 0.14842345, 0.2460887, 0.72976166, 0.0038848787, 0.30639777, -0.05718994, 0
597, 1713119331, 0.6229471, 0.14542033, 0.24528787, 0.72843933, 0.08083815, 0.28756467, -0.07262993, 0
598, 1713135998, 0.62573946, 0.14226946, 0.2443328, 0.72698766, 0.0843957, 0.31810555, -0.11796379, 0
599, 1713152665, 0.62874115, 0.13892874, 0.24334027, 0.7253751, 0.070372045, 0.32694128, -0.187047, 0
600, 1713169332, 0.63200533, 0.13541582, 0.24232414, 0.7235405, -0.0065168557, 0.28601238, -0.24256516, 0
601, 1713185999, 0.63541704, 0.13142185, 0.24135607, 0.7216098, -0.034440216, 0.22844946, -0.30685234, 0
602, 1713202666, 0.6389664, 0.1269558, 0.24049725, 0.71955913, -0.047342166, 0.27040747, -0.38886547, 0
603, 1713219333, 0.64264333, 0.12195489, 0.23976798, 0.71738976, -0.10865032, 0.28661692, -0.43203068, 0
604, 1713236000, 0.64651626, 0.11634182, 0.23885183, 0.7151441, -0.24109235, 0.32408932, -0.41822147, 0
605, 1713252667, 0.6505822, 0.110050894, 0.23776177, 0.7128121, -0.40221828, 0.38036138, -0.5556936, 0
606, 1713269334, 0.65474784, 0.10290858, 0.2368694, 0.7103576, -0.40099958, 0.25390732, -0.667037, 0
607, 1713286001, 0.6590035, 0.09500065, 0.23611166, 0.70777154, -0.27452475, 0.11118345, -0.6633234, 0
608, 1713302668, 0.6634363, 0.086729735, 0.23515134, 0.7050065, -0.15447015, 0.13819426, -0.66545486, 0
609, 1713319335, 0.6683041, 0.07839345, 0.2337816, 0.70183355, -0.09011942, 0.08035045, -0.62168217, 0
610, 1713336002, 0.67339605, 0.06997308, 0.23225492, 0.6983549, -0.070070975, 0.033646077, -0.5774965, 0
611, 1713352669, 0.6783889, 0.06091359, 0.23072994, 0.6948683, -0.09202263, -0.021209005, -0.5085497, 0
612, 1713369336, 0.6833787, 0.051196326, 0.22933367, 0.6912154, -0.10692245, 0.01819091, -0.4885168, 0
613, 1713386003, 0.68837833, 0.04098507, 0.22795144, 0.6873817, -0.10007189, -0.025311837, -0.47375965, 0
614, 1713402670, 0.6933416, 0.030523542, 0.22628942, 0.68347555, -0.05956922, -0.06756548, -0.4301138, 0
615, 1713419337, 0.6983021, 0.019889414, 0.2242624, 0.67947423, -0.004288543, -0.0072464715, -0.40231037, 0
616, 1713436004, 0.7032186, 0.008968205, 0.22227427, 0.6752758, 0.051441394, -0.013698243, -0.35722065, 0
617, 1713452671, 0.70801145, -0.0022988266, 0.2203619, 0.67093605, 0.032722075, 0.036669925, -0.24492836, 0
618, 1713469338, 0.71275914, -0.013595393, 0.21841012, 0.6663982, 0.06234648, 0.03288884, -0.11316872, 0
619, 1713486005, 0.7174482, -0.02466532, 0.2162428, 0.6617392, 0.090435244, -0.038796213, -0.015558243, 0
620, 1713502672, 0.7220134, -0.035449762, 0.21391758, 0.65702295, 0.12154478, -0.13143983, -0.08613968, 0
621, 1713519339, 0.7264932, -0.046092033, 0.21162812, 0.6521479, 0.18118362, -0.19719836, -0.10484409, 0
622, 1713536006, 0.7308862, -0.0564771, 0.20917688, 0.6471946, 0.21200673, -0.25232047, 0.12113571, 0
623, 1713552673, 0.73519415, -0.06649451, 0.20651858, 0.64219815, 0.12714478, -0.26929212, 0.35406303, 0
624, 1713569340, 0.73933303, -0.07620964, 0.20374103, 0.6372349, 0.0619398, -0.22679764, 0.45437908, 0
625, 1713586007, 0.7432349, -0.085510015, 0.2010963, 0.63233715, 0.14271872, -0.18530168, 0.38450527, 0
626, 1713602674, 0.74690837, -0.09428233, 0.19870056, 0.6275006, 0.21384814, -0.35216618, 0.45025253, 0
627, 1713619341, 0.75029707, -0.102206245, 0.19647516, 0.6229009, 0.23419565, -0.5256512, 0.63521004, 0
628, 1713636008, 0.7533868, -0.1092533, 0.19422719, 0.61866635, 0.13399534, -0.5773826, 0.8411732, 0
629, 1713652675, 0.7562142, -0.11554197, 0.19195502, 0.61477125, 0.11319065, -0.42891276, 0.9879694, 0
630, 1713669342, 0.7586819, -0.121429875, 0.19013244, 0.61115146, 0.15744399, -0.29526016, 0.9822149, 0
631, 1713686009, 0.7606442, -0.1271518, 0.18914273, 0.60784703, 0.22866538, -0.274682, 1.0889902, 0
632, 1713702676, 0.76214373, -0.1323446, 0.18875541, 0.604974, 0.25636703, -0.2694044, 1.0759573, 0
633, 1713719343, 0.76346844, -0.13682893, 0.18845747, 0.6023934, 0.11222496, -0.39151937, 1.0692368, 0
634, 1713736010, 0.76468205, -0.14015003, 0.18806244, 0.60020995, 0.10755399, -0.41608903, 1.0719624, 0
635, 1713752677, 0.76571786, -0.14265926, 0.18757968, 0.59844667, 0.124228835, -0.3037588, 1.0255775, 0
636, 1713769344, 0.7666797, -0.14443906, 0.1868582, 0.5970124, 0.07892042, -0.10776889, 0.8303118, 0
637, 1713786011, 0.76745945, -0.14585963, 0.18624792, 0.5958547, 0.003859957, -0.09336192, 0.8180151, 0
638, 1713802678, 0.76799834, -0.14708896, 0.18587777, 0.594973, -0.047709286, -0.044961642, 0.8404007, 0
639, 1713819345, 0.7683625, -0.14825267, 0.18586047, 0.5942189, -0.11766996, 0.081032835, 0.74242306, 0
640, 1713836012, 0.768577, -0.14936635, 0.18607599, 0.59359497, -0.15702064, 0.24146909, 0.56461143, 0
641, 1713852679, 0.76874775, -0.15046778, 0.1863866, 0.59299767, -0.13575585, 0.30056772, 0.34466076, 0
642, 1713869346, 0.7689064, -0.15173069, 0.18693282, 0.59229785, -0.11965766, 0.21039018, 0.28048515, 0
643, 1713886013, 0.7690958, -0.1528927, 0.18754919, 0.59155786, -0.069903456, 0.0953694, 0.3349657, 0
644, 1713902680, 0.76934296, -0.15384203, 0.18812911, 0.59080595, -0.06543487, 0.12829275, 0.27573872, 0
645, 1713919347, 0.76962894, -0.15475973, 0.18867934, 0.5900179, -0.030310033, 0.26384822, 0.2169981, 0
646, 1713936014, 0.76998764, -0.15577795, 0.18924758, 0.5890992, 0.057659414, 0.279817, 0.14341831, 0
647, 1713952681, 0.7703681, -0.15697405, 0.18998641, 0.5880455, 0.04977935, 0.16485377, 0.09941864, 0
648, 1713969348, 0.770729, -0.15808493, 0.19100203, 0.5869452, 0.055585213, -0.061461147, 0.31049347, 0
649, 1713986015, 0.7710859, -0.15864033, 0.19187678, 0.58604026, 0.0020065876, -0.38052186, 0.6024122, 0
650, 1714002682, 0.77150524, -0.15831861, 0.19230528, 0.5854347, -0.09743623, -0.5165327, 0.73527527, 0
651, 1714019349, 0.77201504, -0.1571737, 0.19217138, 0.58511513, -0.14072387, -0.45949557, 0.6319504, 0
652, 1714036016, 0.77254313, -0.15571822, 0.19202897, 0.58485377, -0.070830695, -0.18274945, 0.24691391, 0
653, 1714052683, 0.77292186, -0.1545708, 0.192534, 0.5844916, -0.029834285, 0.0036985807, -0.0054807663, 0
654, 1714069350, 0.77307385, -0.15398127, 0.19389498, 0.5839963, 0.07057444, -0.029567635, -0.06237316, 0
655, 1714086017, 0.773194, -0.15345635, 0.19572434, 0.5833644, 0.13171977, -0.14803676, -0.02909565, 0
656, 1714102684, 0.7733182, -0.15310718, 0.19775026, 0.582608, 0.12856431, -0.09836503, 0.013884544, 0
657, 1714119351, 0.7735089, -0.15274665, 0.1999504, 0.5816978, 0.2605503, 0.11159041, -0.0019931793, 0
658, 1714136018, 0.77370334, -0.15268978, 0.2025082, 0.5805683, 0.08065119, -0.08109296, -0.027401924, 0
659, 1714152685, 0.7738561, -0.15271729, 0.20491464, 0.57951224, -0.055952445, -0.08154021, 0.04658413, 0
660, 1714169352, 0.7739884, -0.1526384, 0.2069417, 0.578635, -0.09358107, 0.07923736, 0.21729374, 0
661, 1714186019, 0.7741703, -0.1524378, 0.20852786, 0.57787454, -0.11213053, 0.07018631, 0.39301872, 0
662, 1714202686, 0.7744341, -0.15199736, 0.20980959, 0.57717305, -0.055873882, 0.03583192, 0.47452164, 0
663, 1714219353, 0.7747264, -0.15138593, 0.21093129, 0.57653254, -0.0043595084, 0.009822276, 0.503829, 0
664, 1714236020, 0.77504385, -0.15055071, 0.21203747, 0.5759182, 0.0029783102, 0.13073976, 0.51937485, 0
665, 1714252687, 0.77540153, -0.14942108, 0.21288992, 0.5754162, -0.025204439, 0.24231195, 0.46639633, 0
666, 1714269354, 0.77586406, -0.14809695, 0.21324001, 0.57500535, -0.032557346, 0.27641445, 0.2945614, 0
667, 1714286021, 0.77637833, -0.1468146, 0.21344861, 0.5745626, -0.01773363, 0.1794646, 0.19675255, 0
668, 1714302688, 0.7768359, -0.14564165, 0.21367674, 0.57415766, 0.10508897, 0.17520007, 0.18933868, 0
669, 1714319355, 0.7772335, -0.14457697, 0.21374166, 0.57386446, 0.16455862, 0.09855569, 0.14006233, 0
670, 1714336022, 0.7775349, -0.14365664, 0.2136975, 0.57370365, 0.10079607, 0.077256694, 0.16187382, 0
671, 1714352689, 0.77782995, -0.14272852, 0.21355417, 0.5735884, 0.11852344, 0.0030937546, 0.21446419, 0
672, 1714369356, 0.7781048, -0.14180833, 0.2135319, 0.57345223, 0.15245573, -0.057361137, 0.23109627, 0
673, 1714386023, 0.7782495, -0.14119692, 0.21367426, 0.5733537, 0.02311638, 0.025680633, 0.18065453, 0
674, 1714402690, 0.7782493, -0.141089, 0.21402852, 0.57324827, -0.10055088, 0.14745104, 0.16786289, 0
675, 1714419357, 0.7781023, -0.14128341, 0.21447474, 0.5732333, -0.13018982, 0.20406096, 0.20231342, 0
676, 1714436024, 0.77792925, -0.14150171, 0.21481967, 0.5732853, -0.078341626, 0.08502835, 0.14892292, 0
677, 1714452691, 0.7777891, -0.14167742, 0.21501766, 0.5733579, 0.011684028, 0.091025986, 0.07500076, 0
678, 1714469358, 0.7777047, -0.14177307, 0.21510313, 0.5734165, 0.058705565, 0.07804357, 0.079268456, 0
679, 1714486025, 0.7776226, -0.14191931, 0.21505001, 0.5735116, 0.01959404, 0.07003845, 0.11597633, 0
680, 1714502692, 0.77757245, -0.14201152, 0.21482427, 0.5736413, 0.0032015995, -0.0068660947, 0.1836214, 0
681, 1714519359, 0.77756065, -0.14206831, 0.214549, 0.57374614, -0.026500478, 0.008277803, 0.18952465, 0
682, 1714536026, 0.777522, -0.14214033, 0.21438248, 0.5738429, -0.027910063, 0.067687884, 0.21305466, 0
683, 1714552693, 0.7774386, -0.1423095, 0.21437074, 0.57391864, -0.022666002, 0.10881113, 0.23418617, 0
684, 1714569360, 0.7773566, -0.14242187, 0.21436861, 0.5740028, -0.017567225, 0.10548884, 0.1845789, 0
685, 1714586027, 0.7772651, -0.14256538, 0.21424027, 0.57413876, -0.0290036, 0.11551004, 0.13216305, 0
686, 1714602694, 0.7771972, -0.14278588, 0.21408792, 0.5742325, -0.019224908, 0.0052598184, 0.07223892, 0
687, 1714619361, 0.77709204, -0.1431096, 0.21405533, 0.5743065, 0.008863853, -0.11806491, 0.10478401, 0
688, 1714636028, 0.77697706, -0.14327082, 0.21403652, 0.57442886, 0.010540871, -0.15479524, 0.17940903, 0
689, 1714652695, 0.7768889, -0.14330465, 0.21394888, 0.5745724, -0.0034311474, -0.08904242, 0.18846512, 0
690, 1714669362, 0.7768549, -0.14324173, 0.21372536, 0.57471734, -0.019762903, -0.015480172, 0.15547085, 0
691, 1714686029, 0.77682453, -0.1432345, 0.2136301, 0.57479554, 0.02122993, 0.04147797, 0.15739346, 0
692, 1714702696, 0.776754, -0.14328283, 0.2136797, 0.57486016, -0.003164273, 0.06639385, 0.1084528, 0
693, 1714719363, 0.7766771, -0.14334399, 0.21377267, 0.57491434, -0.0026206893, 0.02247188, 0.12542057, 0
694, 1714736030, 0.7766693, -0.14337422, 0.21371818, 0.5749376, -0.057140864, -0.058264017, 0.16390896, 0
695, 1714752697, 0.7766474, -0.1434689, 0.21347053, 0.5750356, -0.09203593, -0.038620915, 0.13447094, 0
696, 1714769364, 0.7766745, -0.14354649, 0.21321826, 0.57507324, -0.095631026, -0.047412127, 0.12788582, 0
697, 1714786031, 0.7767032, -0.14361238, 0.21309724, 0.57506293, -0.017444963, -0.006158229, 0.10050392, 0
698, 1714802698, 0.7766033, -0.14372537, 0.21312131, 0.5751607, 0.012168157, -7.855363E-4, 0.15122223, 0
699, 1714819365, 0.7765136, -0.14381696, 0.21324019, 0.5752148, -0.024325697, 0.013582324, 0.21060467, 0
700, 1714836032, 0.7764816, -0.14383642, 0.21330503, 0.57522905, -9.128269E-4, -0.015764033, 0.23638248, 0
701, 1714852699, 0.77644604, -0.14387025, 0.21326564, 0.57528305, -0.026558703, 0.07938029, 0.25297928, 0
702, 1714869366, 0.7764079, -0.14405678, 0.21293764, 0.57540965, -0.05900284, 0.18277079, 0.19003868, 0
703, 1714886033, 0.77641666, -0.14452681, 0.2122945, 0.57551765, -0.051572375, 0.20380314, 0.051182747, 0
704, 1714902700, 0.77647376, -0.14515626, 0.21183354, 0.5754518, -0.013464308, 0.042171642, 0.056872368, 0
705, 1714919367, 0.77628034, -0.14623894, 0.21199639, 0.5753786, 0.07220117, -0.114354596, 0.282794, 0
706, 1714936034, 0.77590454, -0.14724086, 0.21231833, 0.5755115, 0.054891653, -0.08952621, 0.43474007, 0
707, 1714952701, 0.77560824, -0.14778437, 0.21219276, 0.57581776, -0.06881618, 0.13635407, 0.5576525, 0
708, 1714969368, 0.7754865, -0.14849249, 0.21185489, 0.57592386, -0.08122226, 0.22552468, 0.42965794, 0
709, 1714986035, 0.77531415, -0.14902283, 0.2117969, 0.5760403, 0.18220943, 0.2833371, 0.27674103, 0
710, 1715002702, 0.7749479, -0.14956029, 0.21237431, 0.5761813, 0.13744806, -0.15961541, 0.48134708, 0
711, 1715019369, 0.77418625, -0.14970972, 0.2129889, 0.57693887, -0.06381451, -0.3883513, 1.0413074, 0
712, 1715036036, 0.7734443, -0.14866455, 0.2132683, 0.57809997, -0.104809806, -0.10168208, 1.3752718, 0
713, 1715052703, 0.7726116, -0.14662455, 0.21406658, 0.5794379, -0.03647173, -0.121856354, 1.6494942, 0
714, 1715069370, 0.7712744, -0.14343375, 0.21587119, 0.5813453, -0.088658646, -0.3052361, 1.8700695, 0
715, 1715086037, 0.7695887, -0.13860798, 0.21793966, 0.5839723, -0.015311532, -0.452294, 2.0239553, 0
716, 1715102704, 0.76766443, -0.13193005, 0.21993051, 0.58729607, 0.090228714, -0.28933093, 1.850975, 0
717, 1715119371, 0.7653203, -0.12371968, 0.2222188, 0.5912676, 0.12900509, -0.2389996, 1.6475496, 0
718, 1715136038, 0.7623088, -0.11461746, 0.22517483, 0.59585637, 0.09355213, -0.18837985, 1.6584377, 0
719, 1715152705, 0.7587168, -0.10460272, 0.22852334, 0.6009861, -0.05831475, -0.25429013, 1.6251554, 0
720, 1715169372, 0.7545407, -0.09356727, 0.23197582, 0.60671294, -0.08771587, -0.10301047, 1.4004107, 0
721, 1715186039, 0.7498821, -0.081738316, 0.2359155, 0.6126497, 0.15342946, -0.16384415, 1.2794285, 0
722, 1715202706, 0.74462557, -0.069339156, 0.24046989, 0.61878866, 0.44582352, -0.3652994, 1.1909151, 0
723, 1715219373, 0.7388394, -0.055937573, 0.24460271, 0.6254256, 0.4239556, -0.48651963, 0.93670654, 0
724, 1715236040, 0.733325, -0.040849816, 0.24739051, 0.6319524, 0.2753302, -0.47235078, 0.6345339, 0
725, 1715252707, 0.72766113, -0.024857812, 0.24921887, 0.63857764, 0.035120703, -0.3058818, 0.2359829, 0
726, 1715269374, 0.72174877, -0.008993666, 0.2507906, 0.6450597, 0.026305463, -0.07542777, -0.101778984, 0
727, 1715286041, 0.71553373, 0.0062600463, 0.25262108, 0.6512718, 0.05267016, 0.109462254, -0.3349495, 0
728, 1715302708, 0.709062, 0.020558307, 0.25461704, 0.6572509, 0.052984305, 0.28818092, -0.5522537, 0
729, 1715319375, 0.7024341, 0.03375308, 0.2567179, 0.66298056, 0.043422308, 0.32590216, -0.7320757, 0
730, 1715336042, 0.6957897, 0.045913074, 0.25866973, 0.66847503, 0.0070903897, 0.21244515, -0.8619518, 0
731, 1715352709, 0.6893125, 0.057200257, 0.26033205, 0.67364955, -0.06865815, 0.19387487, -0.94057274, 0
732, 1715369376, 0.68327373, 0.06776146, 0.26154658, 0.67833537, -0.0987459, 0.20136741, -0.9835253, 0
733, 1715386043, 0.67775756, 0.07780774, 0.26226136, 0.6825027, 0.006969134, 0.21596989, -0.98497486, 0
734, 1715402710, 0.6726849, 0.08701174, 0.2627868, 0.68619776, -0.07250135, 0.1991454, -1.0663862, 0
735, 1715419377, 0.66819584, 0.09541869, 0.262943, 0.6893988, -0.059757084, 0.009743712, -1.0529652, 0
736, 1715436044, 0.6640261, 0.103110775, 0.26278564, 0.6923737, 0.01946239, 0.054712843, -1.0067511, 0
737, 1715452711, 0.6601304, 0.10980912, 0.26234326, 0.695231, -0.032645743, 0.16402677, -0.9385023, 0
738, 1715469378, 0.65652066, 0.11551675, 0.2620753, 0.6978202, -0.014110932, 0.12532713, -0.953928, 0
739, 1715486045, 0.65307957, 0.12019671, 0.2619236, 0.70031136, 0.086135745, -0.079453826, -0.7932224, 0
740, 1715502712, 0.6500201, 0.1246257, 0.26151124, 0.70253414, 0.12089972, -0.04256318, -0.77766895, 0
741, 1715519379, 0.64741856, 0.12865582, 0.26086077, 0.70444924, -0.028363347, 0.0068498338, -0.75446415, 0
742, 1715536046, 0.64508826, 0.13210192, 0.26023343, 0.7061792, -0.13747902, 0.028363403, -0.7028208, 0
743, 1715552713, 0.6429001, 0.13483098, 0.2599572, 0.7077588, -0.082862735, 1.8629804E-4, -0.5450411, 0
744, 1715569380, 0.64081794, 0.13714264, 0.25975713, 0.70927477, 0.019934673, 0.029068474, -0.42625427, 0
745, 1715586047, 0.63892007, 0.13918647, 0.259612, 0.7106405, 0.052016605, 0.1319365, -0.40443897, 0
746, 1715602714, 0.6371992, 0.14100915, 0.25957054, 0.71184057, 0.03173817, 0.1299801, -0.39016342, 0
747, 1715619381, 0.63565266, 0.14268285, 0.25968367, 0.7128477, 0.013446987, 0.08917206, -0.38391685, 0
748, 1715636048, 0.634392, 0.14438403, 0.25969023, 0.7136253, -0.07601385, 0.28013936, -0.3352356, 0
749, 1715652715, 0.6333984, 0.14585727, 0.25973955, 0.71419024, -0.13112846, 0.29712963, -0.27962685, 0
750, 1715669382, 0.63265365, 0.14697888, 0.2599939, 0.71452767, -0.09742639, 0.17936574, -0.1844387, 0
751, 1715686049, 0.63213307, 0.14796087, 0.26030096, 0.714674, -0.08327322, 0.17477529, -0.08680344, 0
752, 1715702716, 0.63170475, 0.14861418, 0.2607268, 0.7147619, -0.06284525, 0.28393358, -0.05681801, 0
753, 1715719383, 0.6313521, 0.14889072, 0.2611202, 0.7148723, -0.034217488, 0.28543288, -0.008049965, 0
754, 1715736050, 0.6311521, 0.14894982, 0.26148403, 0.71490353, -0.060828045, 0.2457102, -0.059723854, 0
755, 1715752717, 0.63117415, 0.14890757, 0.26176012, 0.7147917, -0.059769377, 0.14271504, -0.055933, 0
756, 1715769384, 0.6314217, 0.14871252, 0.26185238, 0.71458006, -0.07922618, 0.24869627, -0.05495262, 0
757, 1715786051, 0.6319136, 0.1483116, 0.2618021, 0.7142468, -0.07385047, 0.23698704, -0.114429474, 0
758, 1715802718, 0.63257086, 0.14764033, 0.2616717, 0.713852, 0.0050007673, 0.20116685, -0.11376095, 0
759, 1715819385, 0.6333505, 0.1466516, 0.26153323, 0.71341485, -8.3560316E-4, 0.15136711, -0.14121532, 0
760, 1715836052, 0.6343474, 0.14540078, 0.26136655, 0.71284616, -0.014086122, 0.19922996, -0.14113808, 0
761, 1715852719, 0.6355705, 0.14389485, 0.26115412, 0.71213967, -0.030901449, 0.20169346, -0.17237568, 0
762, 1715869386, 0.63701606, 0.14197813, 0.26083902, 0.71134794, -0.06881115, 0.20067155, -0.21413708, 0
763, 1715886053, 0.6387029, 0.13960104, 0.26042926, 0.7104555, -0.05900619, 0.21036196, -0.24339294, 0
764, 1715902720, 0.64070296, 0.13690352, 0.25991142, 0.70936817, -0.023744006, 0.22320636, -0.27068806, 0
765, 1715919387, 0.64302284, 0.13387735, 0.2592875, 0.7080741, -0.068440564, 0.25000656, -0.34283638, 0
766, 1715936054, 0.64558935, 0.13036226, 0.2586705, 0.70661855, -0.07114987, 0.37164918, -0.38903713, 0
767, 1715952721, 0.64840126, 0.12625845, 0.25812575, 0.7049864, -0.07159958, 0.34341833, -0.450593, 0
768, 1715969388, 0.6514572, 0.121436566, 0.2576551, 0.70318604, -0.04410045, 0.26560786, -0.5176344, 0
769, 1715986055, 0.6547894, 0.11589959, 0.25721836, 0.7011827, -0.037838843, 0.18146503, -0.61155605, 0
770, 1716002722, 0.6584003, 0.10966232, 0.256804, 0.69895285, 0.0029212027, 0.17899342, -0.70016384, 0
771, 1716019389, 0.66235036, 0.10286392, 0.25641954, 0.6963907, 0.06444862, 0.21016923, -0.746294, 0
772, 1716036056, 0.6668191, 0.095600605, 0.2559932, 0.69331115, 0.05894942, 0.12803711, -0.8388157, 0
773, 1716052723, 0.67172086, 0.08788253, 0.25553527, 0.68976057, 0.014221347, 0.043501098, -0.863863, 0
774, 1716069390, 0.67692846, 0.07971152, 0.25499082, 0.6858526, -0.13861647, -0.029298693, -0.8991728, 0
775, 1716086057, 0.68222886, 0.07093143, 0.25461292, 0.68169266, -0.17891139, -0.040123314, -0.948431, 0
776, 1716102724, 0.68753296, 0.06129772, 0.25466385, 0.6772647, -0.17741452, -0.17936233, -0.9975271, 0
777, 1716119391, 0.69276994, 0.05104349, 0.25525302, 0.6725403, -0.020375106, -0.23557933, -1.0101566, 0
778, 1716136058, 0.69808185, 0.04047654, 0.25600848, 0.66746026, 0.04925231, -0.21068962, -1.0498228, 0
779, 1716152725, 0.7035119, 0.029522646, 0.2571033, 0.6618893, -0.007472262, -0.33244535, -1.1952791, 0
780, 1716169392, 0.7087549, 0.018038142, 0.25868693, 0.65606594, -0.082675315, -0.46223694, -0.9864464, 0
781, 1716186059, 0.71390235, 0.006352931, 0.26042005, 0.64998806, -0.2444302, -0.43344387, -0.6198969, 0
782, 1716202726, 0.7191425, -0.005084015, 0.2619676, 0.6435693, -0.3677775, -0.38293892, -0.29851723, 0
783, 1716219393, 0.72432953, -0.016357532, 0.26333383, 0.63697296, -0.2664431, -0.234835, -0.053318977, 0
784, 1716236060, 0.7293629, -0.027230134, 0.26476246, 0.63022953, -0.031589758, -0.16410007, 0.19645023, 0
785, 1716252727, 0.7341745, -0.037435982, 0.2660964, 0.6235217, 0.06293834, -0.3059421, 0.58302975, 0
786, 1716269394, 0.7389361, -0.046682965, 0.26695603, 0.6168701, 0.12454924, -0.2536046, 0.9085932, 0
787, 1716286061, 0.74376506, -0.055049673, 0.2671314, 0.6102656, 0.13439208, -0.13503247, 1.0475197, 0
788, 1716302728, 0.7484646, -0.06261732, 0.2668389, 0.60388476, 0.16576414, -0.028643018, 1.0380259, 0
789, 1716319395, 0.7527315, -0.069758125, 0.26652014, 0.5979099, 0.22478653, -0.11135885, 1.2245293, 0
790, 1716336062, 0.7564976, -0.076439634, 0.2658671, 0.5926071, 0.25067002, -0.031576347, 1.3496256, 0
791, 1716352729, 0.7598879, -0.08241073, 0.2649001, 0.5878835, 0.2127023, -0.0035950383, 1.5410919, 0
792, 1716369396, 0.7628121, -0.0876436, 0.26373294, 0.58385074, 0.2555151, -0.04085286, 1.5700302, 0
793, 1716386063, 0.7651235, -0.092455335, 0.2627728, 0.5805072, 0.30278853, -0.006032335, 1.625721, 0
794, 1716402730, 0.7668728, -0.09701411, 0.26216146, 0.5777247, 0.25296125, 0.022163823, 1.5642529, 0
795, 1716419397, 0.76831347, -0.10097451, 0.26158643, 0.5753881, 0.11873366, 0.1220074, 1.455492, 0
796, 1716436064, 0.76954883, -0.10419493, 0.26086718, 0.5734862, -0.021926397, 0.12605958, 1.2818384, 0
797, 1716452731, 0.77044797, -0.10696609, 0.26035404, 0.5719999, 0.01129411, 0.044882573, 1.0985699, 0
798, 1716469398, 0.7710926, -0.109292604, 0.25997156, 0.5708647, 0.003622698, -0.05054265, 0.95430183, 0
799, 1716486065, 0.77157253, -0.1111305, 0.25951666, 0.5700676, -0.025766797, -0.07834325, 0.82309914, 0
800, 1716502732, 0.7720056, -0.1125555, 0.25892475, 0.5694705, -0.060060166, -0.0021800336, 0.51386356, 0
801, 1716519399, 0.77234024, -0.11399089, 0.25843447, 0.5689538, -0.12871307, 0.09476944, 0.26893425, 0
802, 1716536066, 0.77244556, -0.11557235, 0.25821424, 0.56859165, -0.12623408, 0.09333102, 0.1784296, 0
803, 1716552733, 0.7724471, -0.11710364, 0.2581285, 0.56831497, -0.0599198, 0.10592983, 0.06351566, 0
804, 1716569400, 0.7724587, -0.118814506, 0.25793284, 0.568033, -0.017071249, 0.10972323, 0.023680687, 0
805, 1716586067, 0.77259475, -0.12049797, 0.25763205, 0.56762975, 0.016801246, 0.010298583, -0.008638382, 0
806, 1716602734, 0.77269477, -0.12228858, 0.25723338, 0.5672914, 0.043912474, 0.117826305, 0.0779171, 0
807, 1716619401, 0.7727583, -0.12421325, 0.25698376, 0.5668996, 0.05835968, 0.13295892, 0.12081623, 0
808, 1716636068, 0.77280456, -0.1261786, 0.25696352, 0.5664115, 0.09927037, -0.0066359877, 0.19937515, 0
809, 1716652735, 0.7728914, -0.12801705, 0.2569432, 0.5658894, 0.12308791, -0.06663301, 0.24530983, 0
810, 1716669402, 0.773083, -0.1295589, 0.25671798, 0.5653787, 0.055157408, -0.07534476, 0.2844696, 0
811, 1716686069, 0.77340233, -0.13081485, 0.25629914, 0.5648426, 0.013825394, 0.008676885, 0.3029852, 0
812, 1716702736, 0.7737761, -0.13198899, 0.2557802, 0.56429255, -0.0060610007, 0.10730577, 0.25320816, 0
813, 1716719403, 0.77408576, -0.13330676, 0.25549692, 0.5636861, 0.0148490835, 0.13046731, 0.20043564, 0
814, 1716736070, 0.7743484, -0.13451706, 0.25538993, 0.56308603, 0.054247264, -0.017723795, 0.3391409, 0
815, 1716752737, 0.7746427, -0.13529758, 0.25513566, 0.56260914, -7.51227E-4, -0.11185583, 0.51019955, 0
816, 1716769404, 0.77501315, -0.13561164, 0.25447872, 0.56232077, -0.0718326, -0.13744985, 0.5299902, 0
817, 1716786071, 0.7753894, -0.13554592, 0.25371382, 0.56216353, -0.12278528, -0.13697276, 0.5537195, 0
818, 1716802738, 0.7756527, -0.13524054, 0.25302568, 0.562184, -0.098629564, -0.06791564, 0.5073309, 0
819, 1716819405, 0.7757738, -0.13484095, 0.25257272, 0.56231654, -0.06664307, 0.0022301006, 0.37286377, 0
820, 1716836072, 0.77579796, -0.1344824, 0.25234577, 0.56247103, -0.065657154, 0.057987753, 0.27475452, 0
821, 1716852739, 0.77579856, -0.13421045, 0.25230023, 0.5625557, -0.034728773, 0.057369854, 0.15078735, 0
822, 1716869406, 0.7758401, -0.13396631, 0.25234264, 0.5625375, -0.036903553, 0.034376964, 0.041236877, 0
823, 1716886073, 0.77582675, -0.13390638, 0.25238457, 0.5625515, 0.013586012, 0.18292467, 0.10126972, 0
824, 1716902740, 0.7758032, -0.13374054, 0.2525335, 0.5625564, 0.043931026, 0.06370421, 0.21118641, 0
825, 1716919407, 0.7757363, -0.13367727, 0.25279203, 0.5625474, 0.07185606, 8.7393564E-5, 0.22247124, 0
826, 1716936074, 0.7757056, -0.13355973, 0.2528944, 0.5625717, 0.058218196, -0.07234757, 0.19747734, 0
827, 1716952741, 0.7756925, -0.13343315, 0.25295052, 0.5625947, 0.06650159, -0.025669793, 0.16338634, 0
828, 1716969408, 0.77567554, -0.13333213, 0.25298384, 0.56262714, 0.07076733, -0.009427888, 0.18746185, 0
829, 1716986075, 0.775675, -0.13315904, 0.2530516, 0.5626383, 0.059581626, -0.08700734, 0.24166203, 0
830, 1717002742, 0.77570283, -0.13285242, 0.25313088, 0.5626369, 0.03734164, -0.13112119, 0.23821354, 0
831, 1717019409, 0.7757863, -0.13250504, 0.25309613, 0.56261915, -0.018267266, -0.06520063, 0.22882175, 0
832, 1717036076, 0.7759984, -0.13203037, 0.2525555, 0.56268126, -0.0588114, 0.20198245, 0.14929485, 0
833, 1717052743, 0.77625287, -0.1316497, 0.251956, 0.5626884, -0.14602257, 0.1422936, -0.013469696, 0
834, 1717069410, 0.7763266, -0.13164862, 0.25176802, 0.56267095, -0.011152179, 0.09609694, 0.06481075, 0
835, 1717086077, 0.77634186, -0.1316279, 0.25164872, 0.56270814, 0.046256453, -0.08790932, 0.16638279, 0
836, 1717102744, 0.7763857, -0.13149476, 0.2512916, 0.5628384, -0.013596517, -0.15385783, 0.22145653, 0
837, 1717119411, 0.7765033, -0.13127612, 0.2507713, 0.5629593, 2.1613702E-4, -0.044286635, 0.21559048, 0
838, 1717136078, 0.7766293, -0.13115466, 0.25034195, 0.563005, 0.014022085, -5.2302034E-4, 0.115615845, 0
839, 1717152745, 0.7767315, -0.13117693, 0.2501944, 0.56292427, 0.020081745, 0.09799646, 0.043034554, 0
840, 1717169412, 0.77673006, -0.13126755, 0.25027096, 0.56287116, -0.027201526, 0.010958281, 0.08550644, 0
841, 1717186079, 0.776677, -0.1313586, 0.25041547, 0.5628589, -0.055372205, -0.04043472, 0.108724594, 0
842, 1717202746, 0.7767221, -0.13130465, 0.25037518, 0.56282693, -0.05648865, -0.030792039, 0.14730453, 0
843, 1717219413, 0.7768236, -0.13122128, 0.25029486, 0.56274194, -0.048029583, -0.0033295609, 0.09515953, 0
844, 1717236080, 0.77685547, -0.13123353, 0.25030625, 0.56269014, -0.050914463, 0.021074366, 0.10543728, 0
845, 1717252747, 0.77684057, -0.1312557, 0.25047883, 0.56262875, -0.04393706, -0.0324058, 0.1505928, 0
846, 1717269414, 0.77684313, -0.13126518, 0.2506482, 0.5625476, -0.0031202408, -0.0024213158, 0.18215275, 0
847, 1717286081, 0.7768927, -0.13113983, 0.25073487, 0.56246984, 0.037373602, 0.025549319, 0.1881752, 0
848, 1717302748, 0.776995, -0.13097398, 0.25080198, 0.56233704, 0.023768367, 0.04939189, 0.18937302, 0
849, 1717319415, 0.7770646, -0.13086943, 0.2507948, 0.5622684, 0.012961516, 0.10289229, 0.17617702, 0
850, 1717336082, 0.7770434, -0.13093273, 0.25084296, 0.56226164, -0.005338607, 0.06576556, 0.22816086, 0
851, 1717352749, 0.7769958, -0.13102995, 0.2508782, 0.5622891, 0.02970666, 0.08216895, 0.2259798, 0
852, 1717369416, 0.77693737, -0.13115585, 0.25092995, 0.56231725, 0.008300824, 0.06050887, 0.19896698, 0
853, 1717386083, 0.7768722, -0.13125983, 0.2509106, 0.56239164, -0.0042340057, 0.10357657, 0.209836, 0
854, 1717402750, 0.77689666, -0.13128774, 0.25076562, 0.56241596, -0.006947453, 0.070502244, 0.17680073, 0
855, 1717419417, 0.7768767, -0.13138166, 0.25068513, 0.5624576, -0.003294581, 0.023359787, 0.17309189, 0
856, 1717436084, 0.77679986, -0.13154466, 0.2505363, 0.56259197, -0.040457185, 0.035797052, 0.15167904, 0
857, 1717452751, 0.7767458, -0.13168785, 0.25044218, 0.5626748, -0.01873262, -0.013548015, 0.16199112, 0
858, 1717469418, 0.7766943, -0.13180304, 0.25038093, 0.56274635, 0.013467102, -0.0075118234, 0.19660091, 0
859, 1717486085, 0.7766615, -0.13188052, 0.2503067, 0.56280637, 4.758591E-4, -0.014539517, 0.16013336, 0
860, 1717502752, 0.776637, -0.13194202, 0.25019002, 0.5628776, -0.011396479, 0.029574787, 0.123970985, 0
861, 1717519419, 0.7766454, -0.1320264, 0.25005862, 0.5629046, -0.04462235, -0.014034714, 0.11088562, 0
862, 1717536086, 0.77663887, -0.1321227, 0.2500241, 0.5629063, -0.036066275, -0.031465482, 0.1615181, 0
863, 1717552753, 0.7766257, -0.1321464, 0.24992192, 0.5629645, -0.062878, -0.01674291, 0.20410061, 0
864, 1717569420, 0.7766214, -0.13213238, 0.2498084, 0.56302404, -0.023926392, 0.039024916, 0.17594624, 0
865, 1717586087, 0.7765924, -0.13214654, 0.24976888, 0.5630782, 0.0038958308, 0.05819238, 0.15847397, 0
866, 1717602754, 0.7765313, -0.13225752, 0.24971628, 0.5631597, 0.002234459, 0.07014887, 0.1532011, 0
867, 1717619421, 0.77648735, -0.13236697, 0.24960285, 0.56324476, -0.01536361, -0.019982282, 0.17166328, 0
868, 1717636088, 0.7764856, -0.13241152, 0.24941514, 0.56332004, -0.018857118, 0.0016491903, 0.18952656, 0
869, 1717652755, 0.776493, -0.13243166, 0.24913017, 0.56343114, -0.0063218405, 0.023520157, 0.16700363, 0
870, 1717669422, 0.7765795, -0.1324425, 0.24880975, 0.56345105, 0.013260577, 0.0612744, 0.16253376, 0
871, 1717686089, 0.7765725, -0.13246158, 0.24843419, 0.5636217, -0.011679893, 0.05083646, 0.14731789, 0
872, 1717702756, 0.7765873, -0.1326066, 0.24807231, 0.5637267, -0.03327594, 0.041457966, 0.16619015, 0
873, 1717719423, 0.7764589, -0.1330811, 0.24761683, 0.56399214, 0.001604823, 0.09258745, 0.1181488, 0
874, 1717736090, 0.7764032, -0.13360313, 0.247143, 0.5641531, 0.038433947, 0.097862914, 0.055124283, 0
875, 1717752757, 0.7764012, -0.13462946, 0.24686655, 0.564033, -0.04654948, 0.06412821, 0.13786507, 0
876, 1717769424, 0.7763873, -0.1360494, 0.24647619, 0.5638823, -0.11507185, 0.15095015, 0.28735733, 0
877, 1717786091, 0.7762864, -0.13718331, 0.24597695, 0.5639644, -0.20905279, 0.09368501, 0.64557743, 0
878, 1717802758, 0.77598065, -0.13807718, 0.24534635, 0.5644413, -0.3485803, -0.18055254, 1.0979671, 0
879, 1717819425, 0.77549326, -0.1383155, 0.24469769, 0.5653338, -0.10838032, 0.043505345, 1.2341938, 0
880, 1717836092, 0.7745212, -0.13840519, 0.2447072, 0.5666389, 0.09831598, 0.21978353, 1.2647686, 0
881, 1717852759, 0.7728854, -0.13806248, 0.24560893, 0.5685627, 0.16187546, 0.04827399, 1.3396635, 0
882, 1717869426, 0.77051216, -0.1372489, 0.24712603, 0.5713165, -0.20231901, -0.410444, 1.5971508, 0
883, 1717886093, 0.7676941, -0.13505077, 0.2490789, 0.57477576, -0.119662575, -0.34519577, 1.9422979, 0
884, 1717902760, 0.7645546, -0.13117611, 0.2510129, 0.57900065, 0.06157402, -0.5705156, 2.0923405, 0
885, 1717919427, 0.7610982, -0.12525712, 0.2529749, 0.5839899, 0.17063425, -0.5405095, 2.0902824, 0
886, 1717936094, 0.7572985, -0.11780742, 0.2549789, 0.58958143, 0.12517127, -0.5730991, 1.9268913, 0
887, 1717952761, 0.7531183, -0.10895122, 0.25702667, 0.59571797, 0.1923577, -0.471497, 1.7297192, 0
888, 1717969428, 0.7481381, -0.0989136, 0.2592524, 0.60273844, 0.21074657, -0.34017476, 1.5650358, 0
889, 1717986095, 0.7424564, -0.08785121, 0.26131576, 0.6105365, 0.07513098, -0.35731608, 1.3986187, 0
890, 1718002762, 0.73627573, -0.075866215, 0.26333117, 0.6187075, 0.05977139, -0.31027767, 1.2412004, 0
891, 1718019429, 0.72943556, -0.0632481, 0.26533884, 0.6273109, 0.16885443, -0.32881677, 0.9785986, 0
892, 1718036096, 0.72246003, -0.049994208, 0.26746157, 0.63562316, 0.25083563, -0.34372795, 0.49615955, 0
893, 1718052763, 0.7153427, -0.03626035, 0.26955548, 0.6436692, 0.23098455, -0.17158908, 0.062319756, 0
894, 1718069430, 0.70793605, -0.022452014, 0.2714068, 0.65166026, 0.20033209, -0.14231797, -0.11835003, 0
895, 1718086097, 0.7002427, -0.008870652, 0.2732981, 0.65946174, 0.27382842, 0.0010684897, -0.30035782, 0
896, 1718102764, 0.6926318, 0.0046329405, 0.27511454, 0.66674715, 0.2980068, 0.04406519, -0.4969616, 0
897, 1718119431, 0.68505496, 0.017787144, 0.2770479, 0.6735192, 0.35931194, -0.016307432, -0.594759, 0
898, 1718136098, 0.6774932, 0.030540045, 0.27884665, 0.67993754, 0.29525736, 0.014858925, -0.6754341, 0
899, 1718152765, 0.670219, 0.04286416, 0.2801795, 0.6859072, 0.12985846, 0.047585476, -0.82258224, 0
900, 1718169432, 0.6632472, 0.054759197, 0.28144577, 0.691298, 0.051700894, 0.013673936, -0.97091484, 0
901, 1718186099, 0.6565354, 0.066027045, 0.28266186, 0.6962069, 0.07843483, -0.02541144, -1.0433416, 0
902, 1718202766, 0.64994425, 0.07660204, 0.28382877, 0.7008183, 0.15245293, 0.0663035, -0.93897724, 0
903, 1718219433, 0.6434902, 0.086445674, 0.28498745, 0.70514506, 0.18881962, 0.05062982, -0.84349823, 0
904, 1718236100, 0.63726574, 0.09553969, 0.28600243, 0.7092019, 0.16837622, -0.02391287, -0.7350931, 0
905, 1718252767, 0.6313853, 0.10449106, 0.28686678, 0.71284074, 0.062141966, 0.221385, -0.7841711, 0
906, 1718269434, 0.6259956, 0.11307435, 0.28760204, 0.7159811, -0.07624228, 0.22068311, -0.8106556, 0
907, 1718286101, 0.6211328, 0.12111817, 0.28807172, 0.71870685, -0.19925343, 0.23494285, -0.8562212, 0
908, 1718302768, 0.616671, 0.12848999, 0.288452, 0.72111213, -0.26590174, 0.17365861, -0.8268204, 0
909, 1718319435, 0.61235815, 0.13516918, 0.2890978, 0.7233045, -0.13804328, 0.33795705, -0.70211315, 0
910, 1718336102, 0.60833067, 0.14113484, 0.2897994, 0.7252802, 0.0473444, 0.21249577, -0.6273079, 0
911, 1718352769, 0.60463935, 0.14677821, 0.2905364, 0.72695, 0.10269001, 0.092746474, -0.59980106, 0
912, 1718369436, 0.60130024, 0.1520564, 0.29119968, 0.7283679, -0.027368492, 0.057365943, -0.7204075, 0
913, 1718386103, 0.5983552, 0.15681927, 0.29176694, 0.7295554, -0.20603256, 0.2129281, -0.7262058, 0
914, 1718402770, 0.5957758, 0.16092515, 0.2922934, 0.7305607, -0.2792647, 0.17940195, -0.70201015, 0
915, 1718419437, 0.5935883, 0.16440566, 0.29271382, 0.7313975, -0.18159445, 0.26540816, -0.63141155, 0
916, 1718436104, 0.5919164, 0.16766042, 0.29285488, 0.7319571, -0.10768619, 0.2796901, -0.54607964, 0
917, 1718452771, 0.59068596, 0.17061067, 0.29282618, 0.73228073, -0.099043734, 0.23201092, -0.50037193, 0
918, 1718469438, 0.5897052, 0.1729468, 0.29292932, 0.73248196, -0.14044783, 0.11178922, -0.5342436, 0
919, 1718486105, 0.5890037, 0.17462388, 0.29316914, 0.7325524, -0.23705918, 0.28355217, -0.5709343, 0
920, 1718502772, 0.58872634, 0.17572075, 0.2934666, 0.7323941, -0.34891713, 0.29598507, -0.5122261, 0
921, 1718519439, 0.58870006, 0.176112, 0.29378605, 0.7321931, -0.39771718, 0.36285686, -0.3615799, 0
922, 1718536106, 0.5887621, 0.17557974, 0.29430833, 0.7320613, -0.24720578, 0.26152682, -0.2909174, 0
923, 1718552773, 0.58897674, 0.1745809, 0.29479644, 0.731931, -0.12479947, 0.27753815, -0.24590397, 0
924, 1718569440, 0.5894652, 0.17348942, 0.29508469, 0.731681, -0.090088576, 0.25102395, -0.13863182, 0
925, 1718586107, 0.5901965, 0.1723445, 0.29522356, 0.7313061, -0.13795532, 0.23498778, -0.059521675, 0
926, 1718602774, 0.59111863, 0.17098802, 0.29523912, 0.73087335, -0.16846864, 0.23514512, -0.05597782, 0
927, 1718619441, 0.5921103, 0.16936706, 0.29519886, 0.7304643, -0.1545543, 0.20437376, 0.04352188, 0
928, 1718636108, 0.5931445, 0.16759343, 0.29516318, 0.7300487, -0.098832846, 0.17555535, 0.06441593, 0
929, 1718652775, 0.5942583, 0.16581124, 0.29505017, 0.72959524, -0.056729935, 0.18536365, 0.07473755, 0
930, 1718669442, 0.5954498, 0.16398948, 0.2949619, 0.72907096, 0.013221127, 0.1634501, 0.06049061, 0
931, 1718686109, 0.59683454, 0.1620607, 0.2948428, 0.72841793, 0.034890708, 0.1504517, 0.034125328, 0
932, 1718702776, 0.5984182, 0.16032964, 0.29469845, 0.7275598, 0.008969016, 0.14520384, -0.011087418, 0
933, 1718719443, 0.6001135, 0.15851602, 0.2945321, 0.72662747, 0.041358724, 0.20858575, -0.023283005, 0
934, 1718736110, 0.6018662, 0.15647598, 0.2944303, 0.7256605, 0.06942648, 0.223012, -0.08380318, 0
935, 1718752777, 0.6037419, 0.15419054, 0.29437682, 0.72461253, 0.0434403, 0.16023225, -0.15847301, 0
936, 1718769444, 0.6058398, 0.15168236, 0.29426584, 0.7234353, -0.037401542, 0.14431874, -0.20917511, 0
937, 1718786111, 0.6081879, 0.1488392, 0.29417184, 0.7220924, -0.12771106, 0.20390567, -0.28628445, 0
938, 1718802778, 0.6107706, 0.14540283, 0.29412574, 0.72062993, -0.13064265, 0.21861036, -0.40940094, 0
939, 1718819445, 0.61376286, 0.14156531, 0.2938879, 0.7189467, -0.0827056, 0.23312317, -0.5483465, 0
940, 1718836112, 0.6172698, 0.13743801, 0.29344693, 0.71692246, -0.06465023, 0.16474827, -0.558877, 0
941, 1718852779, 0.62135696, 0.13313788, 0.29270115, 0.7145041, -0.14072812, 0.123959556, -0.46063995, 0
942, 1718869446, 0.62615633, 0.12871175, 0.29163995, 0.7115532, -0.24946538, 0.17642084, -0.5608692, 0
943, 1718886113, 0.63158935, 0.12380461, 0.29033333, 0.7081484, -0.3075146, 0.32928404, -0.71524334, 0
944, 1718902780, 0.63728786, 0.11791537, 0.28918928, 0.7045068, -0.18807107, 0.36109444, -0.8507328, 0
945, 1718919447, 0.6430757, 0.11078202, 0.28821453, 0.700795, -0.08498577, 0.3749797, -0.87777996, 0
946, 1718936114, 0.6491101, 0.102582574, 0.2871609, 0.6969014, -0.023179077, 0.31085166, -0.87884426, 0
947, 1718952781, 0.65531766, 0.093306124, 0.2861429, 0.69280237, 0.042195782, 0.1685552, -0.8577423, 0
948, 1718969448, 0.6616706, 0.083148904, 0.28504622, 0.6884962, 0.103138044, 0.14013502, -0.82084084, 0
949, 1718986115, 0.6681178, 0.072304234, 0.28368837, 0.6840408, 0.055440042, 0.1460304, -0.6957331, 0
950, 1719002782, 0.67467386, 0.060866322, 0.2818897, 0.67944753, -0.0028276625, 0.19274123, -0.5275669, 0
951, 1719019449, 0.6814765, 0.049237728, 0.27966627, 0.6745018, 0.0073700044, 0.12770896, -0.43186474, 0
952, 1719036116, 0.6884232, 0.03734127, 0.27718356, 0.6692148, 0.08882528, 0.0893355, -0.25715542, 0
953, 1719052783, 0.6955649, 0.025542032, 0.2742645, 0.6635633, 0.10756863, 0.018523412, -0.18420982, 0
954, 1719069450, 0.7028783, 0.013926949, 0.2708771, 0.65756667, 0.17668408, 0.090444766, -0.14087582, 0
955, 1719086117, 0.7102252, 0.0025005804, 0.26715764, 0.65130705, 0.100244775, -0.08457952, -0.17804432, 0
956, 1719102784, 0.71719706, -0.0091318395, 0.2634251, 0.6450987, 0.11218484, -0.174719, -0.17187214, 0
957, 1719119451, 0.7237304, -0.021003187, 0.25999123, 0.6388879, 0.22466728, 9.4306405E-4, -0.044852257, 0
958, 1719136118, 0.7300622, -0.03299588, 0.2564016, 0.6325967, 0.11157219, 0.086830646, 0.008289337, 0
959, 1719152785, 0.73606217, -0.044995267, 0.25305736, 0.6262188, 0.07559219, -0.08812685, 0.25634098, 0
960, 1719169452, 0.7415966, -0.056431085, 0.24994093, 0.6199839, 0.11345585, -0.43047965, 0.5229063, 0
961, 1719186119, 0.7465606, -0.0670761, 0.24702257, 0.61410755, 0.25656092, -0.5456396, 0.79043865, 0
962, 1719202786, 0.7511387, -0.076783225, 0.24401274, 0.6085664, 0.39348406, -0.4148687, 0.9543905, 0
963, 1719219453, 0.7555396, -0.08552288, 0.24088112, 0.60317665, 0.3014365, -0.33781257, 1.0198488, 0
964, 1719236120, 0.7596141, -0.093441755, 0.23807222, 0.5979771, 0.22855563, -0.3968706, 1.1694279, 0
965, 1719252787, 0.7632288, -0.100693166, 0.23544951, 0.59321684, 0.07988018, -0.43299523, 1.218543, 0
966, 1719269454, 0.76652616, -0.10707019, 0.23282795, 0.5888675, -0.03111077, -0.31399652, 1.1039324, 0
967, 1719286121, 0.7694315, -0.11267788, 0.23044966, 0.58495474, -0.11201687, -0.26445863, 1.0355597, 0
968, 1719302788, 0.7718741, -0.1177488, 0.22839803, 0.58153254, -0.12519251, -0.09805396, 0.9285021, 0
969, 1719319455, 0.77396256, -0.122321025, 0.22682084, 0.5784219, -0.06452417, -0.117935605, 0.88971615, 0
970, 1719336122, 0.7756885, -0.12652594, 0.2258609, 0.5755739, 0.0473995, -0.2237691, 0.9932165, 0
971, 1719352789, 0.777132, -0.13008402, 0.22505784, 0.5731433, -0.016308175, -0.2949584, 1.0344524, 0
972, 1719369456, 0.77841526, -0.13290025, 0.22423531, 0.5710743, -0.09956809, -0.18842925, 1.0211916, 0
973, 1719386123, 0.77953887, -0.13536792, 0.22338907, 0.56929123, -0.12941724, -0.06600762, 0.8596487, 0
974, 1719402790, 0.78052866, -0.13738689, 0.22275132, 0.5676989, -0.09584604, -0.025024734, 0.64219093, 0
975, 1719419457, 0.7813435, -0.139055, 0.22233939, 0.56633157, -0.013392785, -0.03175672, 0.5788517, 0
976, 1719436124, 0.7819856, -0.14032613, 0.22208497, 0.5652307, -0.033589527, -0.1169821, 0.65779495, 0
977, 1719452791, 0.7824615, -0.14104447, 0.22186676, 0.56447816, -0.08431166, -0.22416316, 0.9186659, 0
978, 1719469458, 0.78292024, -0.14099151, 0.22134657, 0.5640595, -0.19087526, -0.23829499, 0.97106266, 0
979, 1719486125, 0.7833656, -0.1402511, 0.22061935, 0.56391054, -0.20524067, -0.1934907, 0.7932415, 0
980, 1719502792, 0.78366464, -0.13933322, 0.21985318, 0.5640218, -0.1549878, -0.024760766, 0.48151684, 0
981, 1719519459, 0.783755, -0.1386473, 0.2194378, 0.5642269, -0.049681455, 0.08108514, 0.20619297, 0
982, 1719536126, 0.7836581, -0.13832787, 0.21945566, 0.5644331, 0.026228799, 0.122069925, 0.06642151, 0
983, 1719552793, 0.7834933, -0.13823378, 0.21963528, 0.5646152, 0.1013039, 0.13648237, 0.022881508, 0
984, 1719569460, 0.78339386, -0.13828321, 0.21977606, 0.5646863, 0.041665833, 0.058972217, 0.092541695, 0
985, 1719586127, 0.7833451, -0.13822208, 0.21988612, 0.56472576, 0.0064870166, 0.10540491, 0.21116257, 0
986, 1719602794, 0.78329176, -0.13808307, 0.22020061, 0.5647111, 0.18721345, 0.21435027, 0.29771328, 0
987, 1719619461, 0.7832535, -0.13795339, 0.22059129, 0.5646436, 0.051241126, 0.07470261, 0.19652939, 0
988, 1719636128, 0.7832262, -0.13795418, 0.2210788, 0.5644907, 0.013202463, 0.04662469, 0.20187378, 0
989, 1719652795, 0.78313255, -0.13806708, 0.22156414, 0.5644027, -0.046356253, 4.6647154E-4, 0.2064209, 0
990, 1719669462, 0.7829721, -0.13824907, 0.22192703, 0.56443846, -0.11532106, -0.0853815, 0.24287128, 0
991, 1719686129, 0.78284144, -0.13837005, 0.22209316, 0.56452435, -0.101206556, -0.067298524, 0.275692, 0
992, 1719702796, 0.78278846, -0.13828798, 0.2221611, 0.5645911, -0.07183159, -0.030498678, 0.26351452, 0
993, 1719719463, 0.78274286, -0.13817555, 0.22220582, 0.5646643, -0.058540054, 0.021785362, 0.18588066, 0
994, 1719736130, 0.7826632, -0.13813522, 0.22229658, 0.56474876, -0.0024855759, 0.06638022, 0.111245155, 0
995, 1719752797, 0.7825924, -0.13802545, 0.22246067, 0.56480914, 0.014888086, 0.011235326, 0.094335556, 0
996, 1719769464, 0.7825388, -0.13791344, 0.22256736, 0.56486887, -0.018964404, 0.02133934, 0.09673977, 0
997, 1719786131, 0.78252023, -0.13792516, 0.22249134, 0.56492156, -0.0234065, 0.08276562, 0.12095833, 0
998, 1719802798, 0.78253025, -0.13798471, 0.2224829, 0.5648965, 0.011800031, -0.02952271, 0.069252014, 0
999, 1719819465, 0.78252727, -0.13802418, 0.22255453, 0.5648627, 0.0735428, -0.10682813, 0.1056633, 0
1000, 1719836132, 0.7825589, -0.13791479, 0.2225568, 0.56484467, 0.04425199, -0.098145545, 0.11900616, 0
1001, 1719852799, 0.78265357, -0.13776909, 0.22250572, 0.5647692, -0.034866568, -0.03769926, 0.12780285, 0
1002, 1719869466, 0.782752, -0.13770752, 0.2225023, 0.5646493, -0.04440856, 0.0022536812, 0.10622215, 0
1003, 1719886133, 0.782819, -0.13769275, 0.22254263, 0.56454426, -0.03378175, 0.04268047, 0.12949848, 0
1004, 1719902800, 0.7828669, -0.13769928, 0.22251737, 0.564486, -0.063082956, -0.026497237, 0.19370937, 0
1005, 1719919467, 0.7828909, -0.1376192, 0.22247897, 0.5644874, -0.010466889, -0.039515972, 0.16145706, 0
1006, 1719936134, 0.7829226, -0.13741748, 0.22248581, 0.56448996, 0.011809419, -0.013875349, 0.15072823, 0
1007, 1719952801, 0.7829417, -0.13721643, 0.2224786, 0.56451505, 0.021088, 0.023818212, 0.17538452, 0
1008, 1719969468, 0.78296643, -0.13709638, 0.22240315, 0.5645397, -0.012404969, 0.0073610637, 0.20948029, 0
1009, 1719986135, 0.7829619, -0.13697058, 0.22225937, 0.5646332, -0.03412998, -0.010932019, 0.29456425, 0
1010, 1720002802, 0.78287685, -0.13698982, 0.22211328, 0.56480396, -0.04692353, -0.04085068, 0.29740047, 0
1011, 1720019469, 0.78278476, -0.1370126, 0.22202866, 0.56495935, -0.029531313, 0.027723541, 0.24184799, 0
1012, 1720036136, 0.78268903, -0.13701198, 0.22207056, 0.5650756, 0.0059313634, 0.07831827, 0.18079662, 0
1013, 1720052803, 0.78263175, -0.13689858, 0.22211654, 0.5651643, 0.019011006, 0.09226682, 0.14827156, 0
1014, 1720069470, 0.78261733, -0.13674556, 0.2220653, 0.5652416, -0.002429586, 0.1264661, 0.11281586, 0
1015, 1720086137, 0.78266156, -0.13664873, 0.22195242, 0.5652479, -0.0036045935, 0.13527273, 0.06704712, 0
1016, 1720102804, 0.7827028, -0.13672195, 0.22195584, 0.56517166, -0.019890754, 0.058446962, 0.0864048, 0
1017, 1720119471, 0.782728, -0.13683246, 0.22200193, 0.5650919, 0.0072924453, 0.007963878, 0.17594051, 0
1018, 1720136138, 0.782731, -0.13696618, 0.22191513, 0.5650895, -0.028523605, -0.08730304, 0.2052908, 0
1019, 1720152805, 0.78272426, -0.13705021, 0.22181307, 0.56511843, -0.053079188, -0.05451023, 0.19523239, 0
1020, 1720169472, 0.782726, -0.13709776, 0.22176197, 0.5651246, -0.06309704, -0.03775972, 0.1487112, 0
1021, 1720186139, 0.78272814, -0.13716048, 0.22171658, 0.5651242, -0.074192666, 0.03771379, 0.10097122, 0
1022, 1720202806, 0.78272545, -0.13721654, 0.22172992, 0.56510925, -0.011806625, 0.01785701, 0.076262474, 0
1023, 1720219473, 0.78271693, -0.13730595, 0.22162877, 0.565139, -6.3175935E-4, 2.1233731E-4, 0.11249256, 0
1024, 1720236140, 0.782734, -0.13740312, 0.22136246, 0.56519634, 0.008538195, -0.02129732, 0.122442245, 0
1025, 1720252807, 0.7828584, -0.13737091, 0.22090517, 0.56521046, 0.007825747, -0.017454462, 0.1435976, 0
1026, 1720269474, 0.782952, -0.13738973, 0.22055794, 0.5652118, -0.02556016, -0.015689716, 0.16679287, 0
1027, 1720286141, 0.78299385, -0.13746463, 0.22035265, 0.5652159, -0.062183093, 0.018825267, 0.21300983, 0
1028, 1720302808, 0.7829597, -0.13757965, 0.2203059, 0.5652534, -0.037630416, -0.00980272, 0.21834946, 0
1029, 1720319475, 0.78292507, -0.1376535, 0.22031692, 0.5652791, 0.012074281, 0.005656442, 0.20153713, 0
1030, 1720336142, 0.782922, -0.13765064, 0.22025713, 0.56530714, 0.020207023, 0.020566322, 0.16005898, 0
1031, 1720352809, 0.7829206, -0.13768603, 0.220159, 0.56533873, -0.007988465, 0.0388489, 0.0620203, 0
1032, 1720369476, 0.7829445, -0.13773735, 0.22002853, 0.5653439, -0.022715064, 0.054303143, 0.13545418, 0
1033, 1720386143, 0.7829766, -0.13771215, 0.21986768, 0.56536824, -0.029668216, -0.033600926, 0.18805504, 0
1034, 1720402810, 0.78302354, -0.13765615, 0.21968643, 0.5653873, 0.0012254098, -0.021292627, 0.20419788, 0
1035, 1720419477, 0.78307295, -0.13760035, 0.21950597, 0.5654026, -0.0049339365, 0.011095518, 0.16501045, 0
1036, 1720436144, 0.7830811, -0.13764349, 0.21937901, 0.56543016, -0.0035265875, 0.04798678, 0.13612461, 0
1037, 1720452811, 0.7830501, -0.13775972, 0.21924706, 0.56549597, -0.028837418, 0.042656776, 0.088274, 0
1038, 1720469478, 0.7830193, -0.13786244, 0.21913561, 0.5655568, -0.06735597, 0.0043210643, 0.15776157, 0
1039, 1720486145, 0.7829614, -0.13800317, 0.21880636, 0.56573, -0.117200695, 0.06949107, 0.18852329, 0
1040, 1720502812, 0.78289753, -0.13843632, 0.21825565, 0.5659255, -0.1406889, 0.24597466, 0.12611866, 0
1041, 1720519479, 0.78295636, -0.13918032, 0.21822746, 0.5656724, -0.21120869, 0.10980571, -0.16505623, 0
1042, 1720536146, 0.783059, -0.14017048, 0.21878494, 0.56507, 0.02250619, -0.0014578633, 0.14615059, 0
1043, 1720552813, 0.7828985, -0.14094417, 0.21917894, 0.5649474, 0.15962547, 0.05067776, 0.4926529, 0
1044, 1720569480, 0.78250587, -0.14167567, 0.2194009, 0.5652221, 0.16229701, 0.153175, 0.7041874, 0
1045, 1720586147, 0.7821866, -0.14254376, 0.21963702, 0.5653541, 0.024249256, -0.019841356, 0.7036257, 0
1046, 1720602814, 0.7819112, -0.14257354, 0.22011183, 0.56554294, 0.27693835, -0.14158048, 0.8714733, 0
1047, 1720619481, 0.7813015, -0.14172627, 0.22140102, 0.56609476, 0.32971928, -0.3150375, 1.0671759, 0
1048, 1720636148, 0.77993304, -0.14069985, 0.22414805, 0.5671557, 0.31797957, -0.37474328, 1.3660097, 0
1049, 1720652815, 0.77800184, -0.13877296, 0.22760125, 0.56890494, 0.29321244, -0.21259022, 1.5850964, 0
1050, 1720669482, 0.7757568, -0.13553706, 0.23150197, 0.5711724, 0.08523354, -0.19712222, 1.6883259, 0
1051, 1720686149, 0.77325815, -0.13091804, 0.23568562, 0.57392037, 0.039555535, -0.20840895, 1.7848463, 0
1052, 1720702816, 0.7704314, -0.12497949, 0.23983154, 0.5773182, 0.041273233, -0.246802, 1.8611946, 0
1053, 1720719483, 0.76742285, -0.11747517, 0.24344811, 0.5813731, 0.017613938, -0.2968072, 1.796854, 0
1054, 1720736150, 0.76421404, -0.108789325, 0.24658625, 0.5859498, -0.039287765, -0.27535555, 1.5064754, 0
1055, 1720752817, 0.7606626, -0.09934316, 0.24929762, 0.5910789, -0.07726016, -0.10965344, 1.2235403, 0
1056, 1720769484, 0.7565426, -0.089392416, 0.25209534, 0.5967416, 0.015842374, 0.04353077, 0.9315834, 0
1057, 1720786151, 0.7517399, -0.07935683, 0.25540486, 0.6027921, 0.052659877, -0.09891459, 0.82267857, 0
1058, 1720802818, 0.7464817, -0.0690773, 0.25856322, 0.60921144, 0.09803166, -0.322151, 0.71274376, 0
1059, 1720819485, 0.74112767, -0.057941243, 0.2610875, 0.6157971, 0.070474304, -0.5020715, 0.5207243, 0
1060, 1720836152, 0.7357265, -0.046034925, 0.263018, 0.62242186, -0.0012851995, -0.38161927, 0.16501999, 0
1061, 1720852819, 0.7302912, -0.033995327, 0.26479492, 0.62881064, -0.01752755, -0.21907935, -0.16058064, 0
1062, 1720869486, 0.7247148, -0.02228889, 0.26660222, 0.6349921, -0.013339812, -0.15742263, -0.41009903, 0
1063, 1720886153, 0.7189657, -0.011061059, 0.26852828, 0.64098257, 0.023115486, -0.17962682, -0.50313854, 0
1064, 1720902820, 0.71309024, -3.5608697E-4, 0.27042386, 0.64681774, 0.020743567, -0.17852896, -0.56848717, 0
1065, 1720919487, 0.7071669, 0.009869146, 0.27230778, 0.65243095, 0.036047947, -0.0930549, -0.6607933, 0
1066, 1720936154, 0.7012669, 0.019477323, 0.2742064, 0.65776616, 0.017658418, -0.12421172, -0.6073284, 0
1067, 1720952821, 0.69539267, 0.028797176, 0.2757312, 0.6630023, 0.023238754, -0.14644419, -0.61164474, 0
1068, 1720969488, 0.689508, 0.037911214, 0.27722767, 0.6680466, 0.07190065, -0.18824513, -0.50665665, 0
1069, 1720986155, 0.683761, 0.046807352, 0.27845022, 0.67286354, -0.05818344, -0.17738898, -0.47122383, 0
1070, 1721002822, 0.67820746, 0.05549981, 0.2795697, 0.6773443, -0.10293554, -0.14128858, -0.43361378, 0
1071, 1721019489, 0.6727371, 0.06398248, 0.28070804, 0.6815674, -0.041474506, 0.0056068506, -0.45308876, 0
1072, 1721036156, 0.6673152, 0.071969174, 0.2820232, 0.6855465, 0.043358386, 0.010946183, -0.41717148, 0
1073, 1721052823, 0.66179585, 0.07947355, 0.28360605, 0.6894041, 0.15000558, -0.06344957, -0.43847656, 0
1074, 1721069490, 0.6564696, 0.086974345, 0.28497058, 0.6930188, 0.13005961, -0.024442874, -0.37117386, 0
1075, 1721086157, 0.6513982, 0.09452445, 0.28593233, 0.69641095, 0.012649939, 0.05400213, -0.3794346, 0
1076, 1721102824, 0.6464543, 0.10183194, 0.2866545, 0.6996832, -0.002441991, 0.2303343, -0.4264784, 0
1077, 1721119491, 0.64165133, 0.108730376, 0.28729337, 0.7027973, -0.004555641, 0.16266675, -0.41643906, 0
1078, 1721136158, 0.63682294, 0.11512718, 0.288102, 0.7058326, 0.029964147, 0.070619196, -0.35727024, 0
1079, 1721152825, 0.63208455, 0.12103471, 0.28879607, 0.7088136, -0.021631025, 0.11281917, -0.30837822, 0
1080, 1721169492, 0.62750936, 0.12645425, 0.28938922, 0.71168476, -0.107132554, 0.28769276, -0.26892853, 0
1081, 1721186159, 0.6231338, 0.13131431, 0.28987628, 0.7144457, -0.14222687, 0.35581318, -0.3198471, 0
1082, 1721202826, 0.6191813, 0.13605602, 0.29034832, 0.7167993, -0.07912012, 0.3821083, -0.3612194, 0
1083, 1721219493, 0.6156505, 0.14067112, 0.29068208, 0.7188117, -0.10404025, 0.2469099, -0.30605507, 0
1084, 1721236160, 0.6123972, 0.14492612, 0.29094633, 0.72063607, -0.12585042, 0.21613456, -0.3333559, 0
1085, 1721252827, 0.60936093, 0.1489158, 0.29111174, 0.72232765, -0.1197065, 0.38847, -0.23598003, 0
1086, 1721269494, 0.6065389, 0.15239029, 0.2913003, 0.7239006, -0.06128513, 0.28159615, -0.23327255, 0
1087, 1721286161, 0.6038964, 0.15545622, 0.29167268, 0.72530663, 0.001539669, 0.20163937, -0.25769234, 0
1088, 1721302828, 0.6015837, 0.15852056, 0.2919807, 0.7264403, -0.034600254, 0.1873969, -0.2875023, 0
1089, 1721319495, 0.59953403, 0.16130516, 0.29225037, 0.72741264, -0.055135284, 0.27856928, -0.26067638, 0
1090, 1721336162, 0.5978824, 0.16377956, 0.29231003, 0.728195, -0.060836986, 0.43964282, -0.28150272, 0
1091, 1721352829, 0.5967416, 0.16589977, 0.29221177, 0.72869015, -0.11696165, 0.44381303, -0.42013168, 0
1092, 1721369496, 0.59597176, 0.16740927, 0.29211473, 0.7290137, -0.24610654, 0.34388798, -0.41236687, 0
1093, 1721386163, 0.5954079, 0.16815718, 0.2921531, 0.7292868, -0.1938634, 0.20119831, -0.34227467, 0
1094, 1721402830, 0.5950419, 0.16843966, 0.29225162, 0.7294808, -0.12887746, 0.22484073, -0.30775356, 0
1095, 1721419497, 0.5948672, 0.16837065, 0.2924001, 0.72957975, -0.015577624, 0.16868612, -0.31425476, 0
1096, 1721436164, 0.595022, 0.16830218, 0.29237115, 0.72948086, -0.011250748, 0.14775693, -0.32455063, 0
1097, 1721452831, 0.595509, 0.16802931, 0.29221004, 0.72921085, -0.084213644, 0.20878647, -0.32500267, 0
1098, 1721469498, 0.59632635, 0.16724284, 0.29199663, 0.7288092, -0.13068445, 0.20799099, -0.26257992, 0
1099, 1721486165, 0.5974866, 0.16619197, 0.29176912, 0.7281903, -0.11924852, 0.21761332, -0.15170765, 0
1100, 1721502832, 0.598981, 0.16491331, 0.29147056, 0.7273722, -0.05901245, 0.2608879, -0.10512638, 0
1101, 1721519499, 0.6008021, 0.16343644, 0.29116088, 0.726327, -0.038301516, 0.3353375, -0.15218735, 0
1102, 1721536166, 0.60299593, 0.16171733, 0.2907826, 0.72504425, -0.05206835, 0.341805, -0.18333626, 0
1103, 1721552833, 0.60551554, 0.15956724, 0.2903732, 0.72358334, -0.05897121, 0.3562967, -0.17966175, 0
1104, 1721569500, 0.60849065, 0.15692061, 0.28966478, 0.72194844, -0.20147403, 0.42023563, -0.20892143, 0
1105, 1721586167, 0.6118239, 0.15360983, 0.28893974, 0.7201316, -0.23275857, 0.3455167, -0.21367264, 0
1106, 1721602834, 0.6154163, 0.14965956, 0.28823242, 0.71818316, -0.18012518, 0.36750773, -0.2197237, 0
1107, 1721619501, 0.6192284, 0.14518543, 0.2875421, 0.71609837, -0.08396052, 0.3917883, -0.25495434, 0
1108, 1721636168, 0.62331367, 0.14034168, 0.2866889, 0.7138584, -0.004327881, 0.38086972, -0.31590176, 0
1109, 1721652835, 0.6278534, 0.13529402, 0.28557605, 0.71129614, 0.024383476, 0.21412177, -0.37914658, 0
1110, 1721669502, 0.6328035, 0.13002771, 0.28416133, 0.7084525, -0.01468726, 0.10329646, -0.4776106, 0
1111, 1721686169, 0.6380879, 0.12455131, 0.2823794, 0.70540273, -0.07377358, 0.12823334, -0.46783447, 0
1112, 1721702836, 0.6436449, 0.11863688, 0.28036967, 0.7021678, -0.14926028, 0.17492582, -0.4772892, 0
1113, 1721719503, 0.64950657, 0.11239952, 0.2779895, 0.6987343, -0.20105058, 0.18933123, -0.4360237, 0
1114, 1721736170, 0.6554897, 0.1055902, 0.27550635, 0.6951838, -0.13989732, 0.25108796, -0.45066643, 0
1115, 1721752837, 0.6615185, 0.09815022, 0.27307948, 0.69151115, -0.07386265, 0.29873726, -0.5451298, 0
1116, 1721769504, 0.6676491, 0.09016019, 0.27065897, 0.687648, 0.040790442, 0.08600511, -0.51381207, 0
1117, 1721786171, 0.6738923, 0.0818826, 0.26797363, 0.68363345, 0.11280297, -0.053083993, -0.42205238, 0
1118, 1721802838, 0.6801419, 0.073315635, 0.26499978, 0.6795639, 0.05508801, -0.046730135, -0.36269855, 0
1119, 1721819505, 0.68626076, 0.06422271, 0.26206896, 0.67545664, -0.023954777, 0.100316025, -0.34342098, 0
1120, 1721836172, 0.6922757, 0.05458107, 0.2592616, 0.6712369, -0.013429105, 0.17877002, -0.23568249, 0
1121, 1721852839, 0.6982079, 0.04459553, 0.25649384, 0.6668792, 0.06519426, 0.0467745, -0.1280775, 0
1122, 1721869506, 0.70402485, 0.03482839, 0.25369102, 0.6624024, 0.1650299, -0.068661645, -0.11989403, 0
1123, 1721886173, 0.7098323, 0.025329875, 0.25065935, 0.6577741, 0.12514345, -0.31356812, -0.080848694, 0
1124, 1721902840, 0.71547747, 0.016053246, 0.2475701, 0.653103, 0.19353014, -0.45046914, -0.11887169, 0
1125, 1721919507, 0.72087586, 0.0066487566, 0.24440585, 0.64850557, 0.24373685, -0.2955943, -0.07485962, 0
1126, 1721936174, 0.7261737, -0.0026525643, 0.24112019, 0.643837, 0.10121326, -0.032851376, 0.0025749207, 0
1127, 1721952841, 0.7312334, -0.011906136, 0.23793472, 0.6391738, -0.017926969, 0.06361917, 0.086668015, 0
1128, 1721969508, 0.7360793, -0.021021822, 0.23493662, 0.6344686, -0.066295505, 0.025936248, 0.03959751, 0
1129, 1721986175, 0.7407974, -0.03014169, 0.23208627, 0.62964004, -0.1085456, -0.029194256, 0.056043625, 0
1130, 1722002842, 0.7452775, -0.039107464, 0.22940709, 0.6248236, -0.07294491, -0.11780432, 0.17323112, 0
1131, 1722019509, 0.7494657, -0.04777906, 0.22689278, 0.6201113, 0.08930617, -0.12975182, 0.44603252, 0
1132, 1722036176, 0.7534509, -0.056022853, 0.22424588, 0.6155382, 0.2441023, -0.0563199, 0.5327749, 0
1133, 1722052843, 0.7572945, -0.06363955, 0.22161256, 0.6110182, 0.15387861, -0.19502684, 0.5583544, 0
1134, 1722069510, 0.7609474, -0.07072663, 0.21909596, 0.6065919, 0.0458529, -0.30996084, 0.53821945, 0
1135, 1722086177, 0.7643934, -0.07751565, 0.2167905, 0.6022426, 0.06564084, -0.21863842, 0.61762905, 0
1136, 1722102844, 0.7675405, -0.08403703, 0.21458998, 0.5981393, 0.07335829, -0.15536313, 0.639349, 0
1137, 1722119511, 0.7701658, -0.0905224, 0.21288183, 0.59441715, 0.066148214, -0.13915391, 0.704299, 0
1138, 1722136178, 0.77219474, -0.09686036, 0.21184443, 0.5911476, 0.16997322, -0.105597354, 0.796401, 0
1139, 1722152845, 0.7739071, -0.10272956, 0.21123822, 0.58812666, 0.16290328, -0.27335802, 0.8216953, 0
1140, 1722169512, 0.7754136, -0.10785886, 0.21083637, 0.5853617, 0.11059801, -0.41838747, 1.0167913, 0
1141, 1722186179, 0.77669716, -0.11206159, 0.21043049, 0.5830116, 0.078086376, -0.4288781, 1.1705236, 0
1142, 1722202846, 0.77776796, -0.11534672, 0.20993702, 0.58111864, 0.045090385, -0.3691323, 1.1981516, 0
1143, 1722219513, 0.7786903, -0.117845096, 0.20925099, 0.57962734, -0.011102671, -0.37665722, 1.003665, 0
1144, 1722236180, 0.7794335, -0.11971856, 0.20865324, 0.57845914, -0.028900113, -0.28615493, 0.7793188, 0
1145, 1722252847, 0.77999157, -0.12128377, 0.20820661, 0.57754076, -0.06587228, -0.2104855, 0.6197643, 0
1146, 1722269514, 0.7804196, -0.12267294, 0.20795584, 0.5767591, -0.07629917, -0.14086926, 0.4962616, 0
