DeviceTag:,Xsens DOT 2,,,,,,,,,,,,,,,,,
FirmwareVersion:,1.3.0,,,,,,,,,,,,,,,,,
AppVersion:,2020.1.1,,,,,,,,,,,,,,,,,
Measurement Mode:,Sensor fusion Mode - Extended (Quaternion),,,,,,,,,,,,,,,,,
StartTime:,2020-06-15 14:15:13.640 +0200,,,,,,,,,,,,,,,,,
© Xsens Technologies B. V. 2005-2020,,,,,,,,,,,,,,,,,,,
PacketCounter,SampleTimeFine,Quat_W,Quat_X,Quat_Y,Quat_Z,FreeAcc_X,FreeAcc_Y,FreeAcc_Z,Status
1, 1807245722, 0.8420342, -0.24749269, -0.36344326, -0.31246576, 0.018115055, -0.03523458, 0.17587852, 0
2, 1807262389, 0.8419048, -0.24779515, -0.36362952, -0.31235793, 0.0014161781, -0.02178983, 0.13574886, 0
3, 1807279056, 0.841815, -0.24804753, -0.36373326, -0.31227902, -0.012049807, 0.0073450827, 0.13859844, 0
4, 1807295723, 0.84181637, -0.24814346, -0.36369616, -0.31224242, -0.034237716, 0.016453013, 0.14764214, 0
5, 1807312390, 0.84186864, -0.24818449, -0.36357316, -0.31221217, -0.025435103, 0.019807272, 0.14875793, 0
6, 1807329057, 0.84192926, -0.24817587, -0.36344716, -0.31220204, -3.2923458E-4, 0.008602791, 0.14648533, 0
7, 1807345724, 0.8419697, -0.24815033, -0.3633543, -0.31222135, 0.012208277, 0.009182359, 0.15493011, 0
8, 1807362391, 0.84200275, -0.24811201, -0.36328188, -0.31224686, -0.0021383485, -0.009978959, 0.1537714, 0
9, 1807379058, 0.8420214, -0.24810551, -0.36323372, -0.31225786, 0.0042751324, -8.822056E-4, 0.16849041, 0
10, 1807395725, 0.8420514, -0.24811049, -0.3631646, -0.3122533, 0.009470467, -0.008756567, 0.1580782, 0
11, 1807412392, 0.8420729, -0.24811512, -0.36310318, -0.31226304, -0.018204236, 0.0117507465, 0.13758087, 0
12, 1807429059, 0.84207344, -0.24811807, -0.36307997, -0.31228632, -0.028994324, 0.021658853, 0.12961102, 0
13, 1807445726, 0.8420804, -0.24809134, -0.3630813, -0.31228712, -0.016485197, 0.027189905, 0.15317917, 0
14, 1807462393, 0.8420568, -0.24811384, -0.3630493, -0.31237027, 0.011408995, 0.0010759913, 0.17509365, 0
15, 1807479060, 0.84197575, -0.24819344, -0.3629693, -0.3126184, 0.0047588143, -0.01265508, 0.16251945, 0
16, 1807495727, 0.84213215, -0.24801376, -0.3630534, -0.31224185, 0.012761695, -0.02437677, 0.14848995, 0
17, 1807512394, 0.8420934, -0.24806003, -0.36298293, -0.3123914, 0.0156506, -0.014073493, 0.13790894, 0
18, 1807529061, 0.84188634, -0.24831215, -0.36279932, -0.3129623, 0.0051497384, 0.012737333, 0.13982773, 0
19, 1807545728, 0.8416419, -0.24860366, -0.3625555, -0.3136695, 0.0098263, 0.0026792497, 0.13789463, 0
20, 1807562395, 0.8416496, -0.24859498, -0.36251837, -0.3136987, -0.018601643, 0.022752501, 0.119402885, 0
21, 1807579062, 0.8415359, -0.24870916, -0.36243683, -0.31400746, -0.0066586747, 0.028059145, 0.14653873, 0
22, 1807595729, 0.8415192, -0.24871768, -0.3624214, -0.31406325, 0.00352994, 0.0019076831, 0.13589668, 0
23, 1807612396, 0.84139895, -0.24885091, -0.3623105, -0.31440789, 0.014212965, 0.0051249284, 0.15937424, 0
24, 1807629063, 0.84136814, -0.24889922, -0.36226067, -0.31450903, 0.02823125, -0.028863346, 0.14859581, 0
25, 1807645730, 0.8413073, -0.24897984, -0.3621507, -0.31473485, 0.007291663, -0.0038102253, 0.15469837, 0
26, 1807662397, 0.8416198, -0.24862047, -0.36240903, -0.31388456, -0.030389044, -0.001932046, 0.1446867, 0
27, 1807679064, 0.8410454, -0.2492943, -0.3619547, -0.3154108, 0.004676115, -0.0067141056, 0.13738728, 0
28, 1807695731, 0.84118986, -0.24913558, -0.36204886, -0.3150425, -0.0026101843, 0.014386188, 0.13975048, 0
29, 1807712398, 0.8412505, -0.24905364, -0.36213425, -0.31484732, -0.010271091, 0.018242233, 0.15686607, 0
30, 1807729065, 0.84118944, -0.24910615, -0.3621395, -0.31496263, 0.005638114, 0.0025256963, 0.15426636, 0
31, 1807745732, 0.840991, -0.24933155, -0.3620154, -0.3154564, 0.015803037, -0.0051846066, 0.14590454, 0
32, 1807762399, 0.84099567, -0.24932247, -0.3620499, -0.31541163, 0.010180792, -0.01256724, 0.14697266, 0
33, 1807779066, 0.84097844, -0.24934138, -0.36202165, -0.31547523, 0.015335894, -0.013933127, 0.1369276, 0
34, 1807795733, 0.8408797, -0.24945684, -0.36192325, -0.31576, -0.009813113, 0.018128019, 0.13746262, 0
35, 1807812400, 0.8408001, -0.24955186, -0.3618545, -0.31597522, -0.008820045, -0.0021662875, 0.1368351, 0
36, 1807829067, 0.84085125, -0.24951231, -0.36186182, -0.31586197, 0.012347973, -0.0131105995, 0.14876366, 0
37, 1807845734, 0.8410039, -0.249352, -0.36192474, -0.31551036, 0.019013353, 1.4014263E-4, 0.1396532, 0
38, 1807862401, 0.8409227, -0.24946542, -0.36183617, -0.31573835, 0.0027934648, 0.0038804084, 0.14596176, 0
39, 1807879068, 0.8409132, -0.2494791, -0.36183414, -0.3157553, -0.017115729, 0.018418362, 0.14926147, 0
40, 1807895735, 0.8409515, -0.249431, -0.36185536, -0.31566653, -0.011762146, -0.005154656, 0.13738441, 0
41, 1807912402, 0.84107196, -0.24929821, -0.3619474, -0.31534496, 0.024496796, -0.017216979, 0.15668583, 0
42, 1807929069, 0.8410352, -0.24934864, -0.36187506, -0.31548598, 0.014854448, -0.010259021, 0.14938354, 0
43, 1807945736, 0.84094214, -0.24946773, -0.36175847, -0.31577376, -0.0051859478, -0.01576951, 0.13900185, 0
44, 1807962403, 0.84123266, -0.2491489, -0.3619224, -0.3150632, -0.013263483, 0.0014036613, 0.14583492, 0
45, 1807979070, 0.84102327, -0.24941237, -0.36169204, -0.3156777, -0.023768144, 0.012604343, 0.15209866, 0
46, 1807995737, 0.8410155, -0.24942334, -0.3616601, -0.31572598, 0.0016394675, 0.006679238, 0.14650345, 0
47, 1808012404, 0.84099305, -0.24946514, -0.36162898, -0.3157885, 0.02066288, -0.0148430485, 0.14593315, 0
48, 1808029071, 0.8409497, -0.2495422, -0.36154678, -0.31593716, 0.02020423, -0.0029521591, 0.15548229, 0
49, 1808045738, 0.841141, -0.24932902, -0.36167794, -0.315446, 0.0058321236, 0.016137635, 0.113601685, 0
50, 1808062405, 0.84111166, -0.24935074, -0.36170334, -0.3154778, -0.012477164, 2.0317327E-4, 0.1452322, 0
51, 1808079072, 0.84133905, -0.24908517, -0.36191288, -0.31484008, 0.012409663, -0.011113735, 0.15731907, 0
52, 1808095739, 0.8413729, -0.24905676, -0.36191267, -0.31477255, -0.014743809, 0.0019521621, 0.13826084, 0
53, 1808112406, 0.84133863, -0.2490854, -0.36187837, -0.3148806, -0.014210283, -0.0015424629, 0.13253498, 0
54, 1808129073, 0.8411962, -0.2492618, -0.36175954, -0.31525815, 0.0013871214, -0.004342857, 0.152071, 0
55, 1808145740, 0.8411743, -0.24928461, -0.36174798, -0.3153116, 0.0029425481, -0.008634529, 0.14975548, 0
56, 1808162407, 0.841015, -0.24948494, -0.36159205, -0.31575656, 0.014870317, -0.010494827, 0.1511774, 0
57, 1808179074, 0.8410064, -0.24950458, -0.36156708, -0.31579277, -8.573957E-4, 0.007949015, 0.13068295, 0
58, 1808195741, 0.8409092, -0.24961685, -0.36150143, -0.31603813, -0.011628932, -0.011225044, 0.14083004, 0
59, 1808212408, 0.841027, -0.24947485, -0.36160302, -0.3157202, 0.00107018, -0.0048524663, 0.13677597, 0
60, 1808229075, 0.8410817, -0.24940684, -0.3616571, -0.31556657, 0.008789647, 0.0013050921, 0.15795803, 0
61, 1808245742, 0.84109557, -0.24940717, -0.36165243, -0.31553435, 0.010754102, 0.0031808128, 0.12729168, 0
62, 1808262409, 0.8412263, -0.2492521, -0.36176434, -0.31518, -0.029397765, -0.013970231, 0.1390791, 0
63, 1808279076, 0.84116983, -0.24930955, -0.3617247, -0.31533065, -0.017114835, -0.0035415627, 0.14575958, 0
64, 1808295743, 0.84119576, -0.24928036, -0.36175764, -0.31524676, 0.006242493, -0.0021218085, 0.14729595, 0
65, 1808312410, 0.8411344, -0.24935517, -0.361712, -0.31540364, 0.005660689, -0.016367408, 0.1440363, 0
66, 1808329077, 0.84134907, -0.24911605, -0.3618568, -0.3148534, 0.017686356, -0.00941213, 0.14338875, 0
67, 1808345744, 0.84161425, -0.24883127, -0.36201522, -0.31418726, 0.018277101, -0.007874361, 0.1481266, 0
68, 1808362411, 0.8417069, -0.2487355, -0.3620641, -0.3139582, 0.005567037, 0.014008898, 0.1334753, 0
69, 1808379078, 0.84165883, -0.24881227, -0.36197907, -0.314124, 0.0021895329, 0.0069411946, 0.13415146, 0
70, 1808395745, 0.8417074, -0.24876873, -0.36196184, -0.3140483, -0.007189518, 0.008197337, 0.14736748, 0
71, 1808412412, 0.84169865, -0.24882725, -0.36187744, -0.31412265, 0.013607245, -0.0075174114, 0.14711094, 0
72, 1808429079, 0.8415843, -0.24900562, -0.36166143, -0.3145365, 0.029529637, -0.016344385, 0.15176582, 0
73, 1808445746, 0.8417195, -0.24890801, -0.36161688, -0.31430286, 0.0050493814, -0.012124237, 0.1390953, 0
74, 1808462413, 0.84176326, -0.24887462, -0.36162207, -0.31420624, -0.033866238, 0.029514663, 0.1377306, 0
75, 1808479080, 0.8416767, -0.2489659, -0.36159202, -0.31440046, -0.036312584, 0.0165603, 0.13885593, 0
76, 1808495747, 0.8417519, -0.24885926, -0.36171764, -0.31413928, -0.018891986, 3.0956545E-4, 0.14131069, 0
77, 1808512414, 0.8418231, -0.24876283, -0.3618266, -0.31389892, 0.020820009, -0.010821603, 0.15838718, 0
78, 1808529081, 0.8418465, -0.24874544, -0.36182746, -0.31384894, 0.04972381, -0.010729739, 0.15433598, 0
79, 1808545748, 0.84211427, -0.24845546, -0.36199197, -0.3131699, 0.02886804, -4.0657006E-4, 0.1493864, 0
80, 1808562415, 0.84210205, -0.24848773, -0.3619377, -0.31323954, -0.01105428, 0.015363834, 0.13217068, 0
81, 1808579082, 0.842133, -0.2484454, -0.3619664, -0.31315687, 0.0042592627, 0.0041598, 0.1381092, 0
82, 1808595749, 0.84211767, -0.24846904, -0.36195263, -0.31319517, -0.0075169643, -0.0090366285, 0.14621925, 0
83, 1808612416, 0.8421614, -0.2484195, -0.3620091, -0.313052, -0.01314435, -0.0022094257, 0.14547634, 0
84, 1808629083, 0.84216493, -0.24841793, -0.362014, -0.31303805, 0.0043149176, -0.008187503, 0.14847183, 0
85, 1808645750, 0.8420649, -0.24851203, -0.3619488, -0.31330758, -0.0051405746, -0.017102988, 0.1484127, 0
86, 1808662417, 0.8420735, -0.24848422, -0.36195555, -0.3132988, -0.007609275, 0.003476297, 0.14045906, 0
87, 1808679084, 0.8419629, -0.24861096, -0.36189052, -0.31357035, 0.0153153315, 0.0023692374, 0.167943, 0
88, 1808695751, 0.8418623, -0.24870163, -0.36188334, -0.3137766, 0.0145723745, -0.011669835, 0.1507883, 0
89, 1808712418, 0.84178317, -0.24878688, -0.36186504, -0.3139427, 0.005913482, -0.018377682, 0.16173458, 0
90, 1808729085, 0.84174883, -0.248819, -0.3618605, -0.31401446, 0.0028770587, 0.009078649, 0.15111637, 0
91, 1808745752, 0.8416816, -0.24888769, -0.3618235, -0.31418306, 0.009550708, 0.007921075, 0.13724041, 0
92, 1808762419, 0.84170765, -0.24885194, -0.36185727, -0.3141023, 0.005629174, -0.012570816, 0.14628887, 0
93, 1808779086, 0.84167284, -0.24889028, -0.36182886, -0.31419778, 0.009318925, -0.00164662, 0.1507206, 0
94, 1808795753, 0.84167475, -0.24887781, -0.36184272, -0.31418708, 0.015850868, 0.004813575, 0.14379215, 0
95, 1808812420, 0.8417043, -0.24882874, -0.36189318, -0.31408834, 0.023152813, 0.015356681, 0.1646738, 0
96, 1808829087, 0.8416986, -0.24882239, -0.36189246, -0.31410953, -6.6696265E-4, -0.010153523, 0.1366911, 0
97, 1808845754, 0.8417061, -0.2487945, -0.3619249, -0.31407425, -0.003551174, 0.007720808, 0.14188194, 0
98, 1808862421, 0.84163225, -0.24890259, -0.36185294, -0.3142694, 0.0050321706, -0.0031186764, 0.13547516, 0
99, 1808879088, 0.8415656, -0.2489986, -0.3617502, -0.31448984, 0.025663534, -0.010170063, 0.1532793, 0
100, 1808895755, 0.8415914, -0.2489893, -0.36168382, -0.31450438, 0.008795458, -0.0034689212, 0.13292599, 0
101, 1808912422, 0.8412807, -0.24938032, -0.36136544, -0.31539053, 0.02091746, 0.00825478, 0.1358099, 0
102, 1808929089, 0.84131235, -0.24937442, -0.36125898, -0.31543273, 0.030495437, -0.014476934, 0.1677866, 0
103, 1808945756, 0.8412869, -0.24945575, -0.36105323, -0.3156717, 0.004778707, -0.0015417924, 0.15163326, 0
104, 1808962423, 0.84132147, -0.24948831, -0.3609023, -0.31572697, -0.018820908, 0.03281662, 0.15721416, 0
105, 1808979090, 0.84149796, -0.2493204, -0.36097744, -0.31530303, -0.045696776, 0.031102052, 0.13526726, 0
106, 1808995757, 0.84143144, -0.24939711, -0.3609614, -0.31543827, -0.052740563, 0.035715807, 0.13844872, 0
107, 1809012424, 0.84137344, -0.24943002, -0.36101788, -0.3155019, 0.005780492, -0.013861156, 0.14503288, 0
108, 1809029091, 0.8412551, -0.2495259, -0.36101136, -0.31574917, 0.031295836, -0.02448294, 0.15857506, 0
109, 1809045758, 0.84126407, -0.24951574, -0.36102274, -0.31572056, 0.020418355, -0.011561878, 0.15304375, 0
110, 1809062425, 0.8414419, -0.24931245, -0.36114714, -0.31526417, 0.016771741, 0.002032627, 0.15848637, 0
111, 1809079092, 0.8412602, -0.24952327, -0.36099464, -0.31575683, 8.833232E-4, -0.008592732, 0.1493702, 0
112, 1809095759, 0.84131163, -0.24945611, -0.36103812, -0.31562304, 0.003727749, 0.0045531825, 0.13476658, 0
113, 1809112426, 0.84129983, -0.24948646, -0.36103112, -0.3156386, -6.9758395E-4, 0.005990147, 0.14371014, 0
114, 1809129093, 0.84130937, -0.24948257, -0.36102837, -0.31561926, 0.020824255, 0.009827641, 0.15497303, 0
115, 1809145760, 0.8413312, -0.24946535, -0.3610176, -0.31558707, 0.017335441, 8.0375257E-4, 0.15057755, 0
116, 1809162427, 0.84134614, -0.24946488, -0.3609855, -0.31558436, -1.7836333E-4, 0.005682593, 0.12101936, 0
117, 1809179094, 0.8413188, -0.2494952, -0.36096057, -0.315662, -0.007179683, -0.0012056289, 0.16348457, 0
118, 1809195761, 0.8412565, -0.2495691, -0.36093375, -0.31580028, 0.0067342217, -0.002163382, 0.1630001, 0
119, 1809212428, 0.8412182, -0.24963921, -0.36088645, -0.31590086, 0.02586112, -0.018219883, 0.15646744, 0
120, 1809229095, 0.8410712, -0.24981241, -0.36073714, -0.3163256, 0.011515164, 0.0078055193, 0.1396389, 0
121, 1809245762, 0.8410815, -0.24981374, -0.36071116, -0.3163268, 0.0034686977, 0.012898039, 0.14649963, 0
122, 1809262429, 0.8411493, -0.2497427, -0.360734, -0.3161762, 0.0031524268, -0.0042125485, 0.1663971, 0
123, 1809279096, 0.8411242, -0.24976765, -0.3607123, -0.31624797, 0.0023077712, 0.010968898, 0.14146519, 0
124, 1809295763, 0.8410986, -0.24979517, -0.3606917, -0.31631815, 0.003009155, 0.0015784485, 0.15081215, 0
125, 1809312430, 0.84108067, -0.24983248, -0.36066875, -0.31636247, 0.013124234, -0.012805951, 0.14863777, 0
126, 1809329097, 0.8411193, -0.24979208, -0.360658, -0.31630397, 0.021535696, -0.008003775, 0.1546936, 0
127, 1809345764, 0.84117013, -0.24973671, -0.36068538, -0.316181, -0.023678962, 0.009466444, 0.13409424, 0
128, 1809362431, 0.8411657, -0.24973115, -0.36072436, -0.31615257, -0.006749421, 0.001199594, 0.14450932, 0
129, 1809379098, 0.8411902, -0.24969706, -0.36075935, -0.31607458, 0.0032364675, 0.005715003, 0.15398121, 0
130, 1809395765, 0.8411166, -0.24976875, -0.36071736, -0.31626192, 0.0046711974, -0.003267089, 0.15394974, 0
131, 1809412432, 0.8411184, -0.24976528, -0.3607137, -0.31626406, 0.01814858, 0.0056741, 0.16191292, 0
132, 1809429099, 0.8411238, -0.24975932, -0.36071074, -0.31625757, 0.002545589, -5.8560394E-4, 0.14514256, 0
133, 1809445766, 0.8411491, -0.24974689, -0.36072367, -0.3161853, -0.0076124044, -0.005636773, 0.16002941, 0
134, 1809462433, 0.84117836, -0.24970582, -0.36077294, -0.31608367, -8.898051E-4, 0.0017885506, 0.14713097, 0
135, 1809479100, 0.84115565, -0.24971963, -0.36077052, -0.31613597, 0.016386852, -7.331225E-5, 0.1578455, 0
136, 1809495767, 0.84114456, -0.24973428, -0.36074817, -0.31617942, -0.0026410292, -0.0026729915, 0.14844704, 0
137, 1809512434, 0.84111696, -0.24976684, -0.36071062, -0.3162701, 0.0045753103, 0.01956543, 0.15511322, 0
138, 1809529101, 0.84105164, -0.2498554, -0.3606572, -0.31643456, -0.0036863992, 0.011144132, 0.17533112, 0
139, 1809545768, 0.8410335, -0.24988547, -0.3606401, -0.31647855, 0.010130501, -0.0056720884, 0.14050579, 0
140, 1809562435, 0.8410053, -0.24991453, -0.36063072, -0.31654117, 0.006737351, -0.01298275, 0.13894653, 0
141, 1809579102, 0.8409584, -0.24995996, -0.36061567, -0.31664708, 0.00699752, 0.004851572, 0.15275192, 0
142, 1809595769, 0.8409139, -0.2500123, -0.36057258, -0.31677303, 0.017656853, -0.010133631, 0.14414787, 0
143, 1809612436, 0.84089595, -0.2500288, -0.3605296, -0.3168568, 0.0062272944, -0.012707159, 0.14961433, 0
144, 1809629103, 0.84090835, -0.2500102, -0.3605217, -0.31684753, 0.0024407615, 0.015577735, 0.13818455, 0
145, 1809645770, 0.84088165, -0.2500219, -0.36049926, -0.31693465, 0.018664896, -0.018396905, 0.1562376, 0
146, 1809662437, 0.8409102, -0.24999411, -0.3604617, -0.3169236, 0.033053543, -0.02026972, 0.15799999, 0
147, 1809679104, 0.8407833, -0.25016257, -0.36028916, -0.31732342, 0.005193547, -0.02185018, 0.1366291, 0
148, 1809695771, 0.840831, -0.25011772, -0.36026144, -0.31726348, 0.024028983, -0.004664045, 0.18253517, 0
149, 1809712438, 0.8408637, -0.25011197, -0.3602273, -0.31722006, -0.041072294, 0.03919322, 0.105875015, 0
150, 1809729105, 0.84084034, -0.2501279, -0.36023602, -0.31725946, -0.034338072, 0.009391568, 0.1476345, 0
151, 1809745772, 0.840832, -0.25011408, -0.36027938, -0.3172433, 0.012060759, -0.032495208, 0.16332531, 0
152, 1809762439, 0.84069675, -0.25026247, -0.36019212, -0.31758386, 0.018659085, -0.008875029, 0.1492691, 0
153, 1809779106, 0.8406771, -0.2502854, -0.36017567, -0.3176367, 0.01350644, 0.0055963174, 0.16686726, 0
154, 1809795773, 0.8406587, -0.25029588, -0.36018807, -0.31766275, 0.0011365634, -4.005352E-4, 0.13761139, 0
155, 1809812440, 0.84068185, -0.2502739, -0.3602109, -0.31759304, 0.037366226, -0.013537956, 0.16141796, 0
156, 1809829107, 0.8405951, -0.2503738, -0.36014408, -0.3178196, 0.014147253, -0.0064856755, 0.15127182, 0
157, 1809845774, 0.840683, -0.25026473, -0.3602128, -0.3175948, -0.003908571, 0.0146725075, 0.14194489, 0
158, 1809862441, 0.8407042, -0.25023517, -0.36023718, -0.3175343, -0.014123336, -0.0150156, 0.14158726, 0
159, 1809879108, 0.8406318, -0.25032043, -0.36019558, -0.31770608, 0.024767695, -0.0063513443, 0.1554594, 0
160, 1809895775, 0.8406253, -0.25031465, -0.3601787, -0.31774682, 0.03277661, -0.013054274, 0.14879894, 0
161, 1809912442, 0.8406371, -0.25032738, -0.36014423, -0.31774467, 0.017087342, -0.017532356, 0.14720821, 0
162, 1809929109, 0.840725, -0.25024575, -0.36017537, -0.31754106, 0.02642929, -0.008197561, 0.13570595, 0
163, 1809945776, 0.8408358, -0.25014374, -0.3602065, -0.3172929, 1.897625E-4, -0.008777801, 0.14020634, 0
164, 1809962443, 0.8408633, -0.2501355, -0.36019668, -0.31723726, -0.030037235, 0.009655536, 0.14445877, 0
165, 1809979110, 0.8409701, -0.25000438, -0.36027434, -0.3169694, -0.03066933, 0.013904741, 0.13950157, 0
166, 1809995777, 0.84081656, -0.25017548, -0.36017454, -0.3173549, -0.0012438496, -0.019125333, 0.14773655, 0
167, 1810012444, 0.8406696, -0.25033617, -0.36005196, -0.31775635, 0.0027979352, -0.012110155, 0.13991833, 0
168, 1810029111, 0.8407593, -0.25022128, -0.36014235, -0.31750715, -0.0063144644, -0.010307523, 0.14631462, 0
169, 1810045778, 0.8407623, -0.25021538, -0.3601645, -0.3174785, 0.017361369, -0.0064061047, 0.14825535, 0
170, 1810062445, 0.84072083, -0.25024995, -0.36017808, -0.31754574, 0.026469298, 0.007336589, 0.13434315, 0
171, 1810079112, 0.84073335, -0.25023255, -0.36021462, -0.3174847, 0.055011008, -0.014902056, 0.16318607, 0
172, 1810095779, 0.8407173, -0.2502663, -0.36017063, -0.31755033, 0.028447835, -0.004169187, 0.15412235, 0
173, 1810112446, 0.8407327, -0.2502608, -0.36015183, -0.3175353, -0.01918568, 0.012494598, 0.13790798, 0
174, 1810129113, 0.84080833, -0.25016698, -0.360242, -0.3173068, -0.02624735, 0.007273782, 0.11510372, 0
175, 1810145780, 0.84084535, -0.25010195, -0.36033422, -0.31715524, 0.0016750061, -0.018837895, 0.15916824, 0
176, 1810162447, 0.84078497, -0.2501536, -0.3603435, -0.31726426, 0.028439788, -0.012073276, 0.14905262, 0
177, 1810179114, 0.84073806, -0.25020555, -0.36032128, -0.31737274, 0.034657247, -0.02567784, 0.14762783, 0
178, 1810195781, 0.8407233, -0.25024468, -0.36030248, -0.3174022, 0.032137588, -0.011879043, 0.1427288, 0
179, 1810212448, 0.84068996, -0.25030503, -0.36026797, -0.31748208, 0.020524748, -0.02825472, 0.15380287, 0
180, 1810229115, 0.8406711, -0.25033662, -0.3602262, -0.31755415, 0.009675429, -0.0054883608, 0.14750767, 0
181, 1810245782, 0.8406562, -0.2503639, -0.3601892, -0.31761408, 0.007272441, -0.0042460756, 0.15520859, 0
182, 1810262449, 0.84066916, -0.25034603, -0.3601921, -0.3175907, 0.007140792, -0.015440722, 0.14246273, 0
183, 1810279116, 0.84072745, -0.25026065, -0.36026254, -0.31742373, 0.012535277, -3.7416068E-4, 0.16277122, 0
184, 1810295783, 0.84081537, -0.25016862, -0.36033738, -0.3171787, 6.1376655E-4, -0.010163581, 0.13820744, 0
185, 1810312450, 0.8408116, -0.25016916, -0.36033872, -0.31718656, 0.0262735, -0.024490092, 0.1582098, 0
186, 1810329117, 0.8408482, -0.2501349, -0.36035025, -0.31710348, 0.006706953, -0.0098866485, 0.13562965, 0
187, 1810345784, 0.8409185, -0.25005484, -0.36039835, -0.31692544, 0.0148741165, -3.4242184E-4, 0.15451145, 0
188, 1810362451, 0.84099835, -0.24996719, -0.36046588, -0.31670576, -0.003253231, 0.012984091, 0.14045429, 0
189, 1810379118, 0.84093034, -0.25005132, -0.36041915, -0.3168731, 0.006958629, -0.0010272656, 0.16141224, 0
190, 1810395785, 0.8409964, -0.24997409, -0.360475, -0.3166954, 0.03160138, 5.062568E-4, 0.15894985, 0
191, 1810412452, 0.8410563, -0.24992023, -0.36049458, -0.31655642, 0.021615043, -0.0042965896, 0.14081955, 0
192, 1810429119, 0.84106004, -0.24991502, -0.360498, -0.31654668, 0.009397603, 0.001303751, 0.14352131, 0
193, 1810445786, 0.84114355, -0.24983166, -0.36054543, -0.31633675, 0.0071571083, -0.009462644, 0.13839531, 0
194, 1810462453, 0.8411276, -0.24985032, -0.36052498, -0.3163873, 0.0022416115, 0.0051459386, 0.16751003, 0
195, 1810479120, 0.84112275, -0.24985953, -0.36049655, -0.31642544, 0.013565895, 0.0010679449, 0.15642548, 0
196, 1810495787, 0.8411168, -0.24986644, -0.36049035, -0.31644306, -0.00919957, -0.013038182, 0.1495409, 0
197, 1810512454, 0.8411091, -0.24988143, -0.36048713, -0.31645527, -0.004746298, -0.012234876, 0.13759708, 0
198, 1810529121, 0.84109163, -0.24989632, -0.36048824, -0.31648877, -0.009524111, 0.0077357832, 0.14632797, 0
199, 1810545788, 0.8411499, -0.24980946, -0.3605633, -0.31631666, 0.01929699, -0.0063676606, 0.14686584, 0
200, 1810562455, 0.84118325, -0.24977666, -0.3605822, -0.31623268, 0.020847948, -0.007957284, 0.14931107, 0
201, 1810579122, 0.84117895, -0.24979053, -0.36056772, -0.31624916, 0.007394479, -0.014782029, 0.14913845, 0
202, 1810595789, 0.8411818, -0.24978453, -0.36057857, -0.3162341, -6.3924707E-4, 0.016138082, 0.1399889, 0
203, 1810612456, 0.84116524, -0.24981044, -0.3605845, -0.31625092, -0.0027811718, 0.010164028, 0.14807224, 0
204, 1810629123, 0.8411524, -0.24983363, -0.36057624, -0.3162762, 0.00435962, -0.009326972, 0.13805294, 0
205, 1810645790, 0.8411453, -0.24985106, -0.3605706, -0.31628796, 0.007277135, -5.051393E-4, 0.15613174, 0
206, 1810662457, 0.84120417, -0.24979158, -0.36060756, -0.31613624, 0.02097669, -0.010312888, 0.14604378, 0
207, 1810679124, 0.8410768, -0.2499677, -0.36047533, -0.3164864, 0.004597885, -0.005737354, 0.14224434, 0
208, 1810695791, 0.841055, -0.2500078, -0.3604412, -0.31655157, -8.2342175E-4, -0.0044534956, 0.14572716, 0
209, 1810712458, 0.84107196, -0.2500014, -0.36042726, -0.3165273, 0.0035659256, -0.0018437584, 0.14684868, 0
210, 1810729125, 0.8411049, -0.24996018, -0.36044267, -0.3164547, -0.005984559, 0.008092287, 0.14204407, 0
211, 1810745792, 0.8412245, -0.24981311, -0.3605661, -0.3161124, -0.014755432, -0.0032463023, 0.14688778, 0
212, 1810762459, 0.84121776, -0.24980642, -0.3605831, -0.31611606, 0.0022532342, -0.012776671, 0.1275301, 0
213, 1810779126, 0.8413113, -0.24968348, -0.36067274, -0.31586203, 0.027037468, 7.608381E-4, 0.16443157, 0
214, 1810795793, 0.8413047, -0.24969335, -0.36066276, -0.3158831, 0.030092666, -0.008601002, 0.1383934, 0
215, 1810812460, 0.8413158, -0.24968685, -0.36065525, -0.31586716, 0.018480051, 0.010982086, 0.13267422, 0
216, 1810829127, 0.8413161, -0.2496874, -0.36063504, -0.3158892, 0.028217617, -6.399176E-4, 0.15822697, 0
217, 1810845794, 0.8413623, -0.24962614, -0.36066628, -0.31577876, -0.01342687, 0.00635872, 0.13909245, 0
218, 1810862461, 0.84138966, -0.24959825, -0.36069316, -0.31569728, -0.006041108, 0.023353081, 0.14591599, 0
219, 1810879128, 0.8414107, -0.24958348, -0.36071047, -0.31563273, -0.0034038788, -0.0031575675, 0.14553642, 0
220, 1810895795, 0.8413852, -0.24961962, -0.36069614, -0.31568855, 0.028958116, -0.021690145, 0.15089226, 0
221, 1810912462, 0.84142053, -0.24958734, -0.36069536, -0.3156208, 0.025503723, -0.027304789, 0.15812588, 0
222, 1810929129, 0.84147453, -0.24952781, -0.36069837, -0.3155203, 2.1859567E-4, -0.0039821067, 0.14763546, 0
223, 1810945796, 0.84144366, -0.2495778, -0.3606405, -0.31562942, 0.0025303902, -0.00828786, 0.14885235, 0
224, 1810962463, 0.84145683, -0.24956898, -0.36065346, -0.31558657, -0.003491496, 0.0013618644, 0.13813591, 0
225, 1810979130, 0.8414518, -0.24957971, -0.36065078, -0.31559458, -0.008379947, -0.0010143018, 0.14708805, 0
226, 1810995797, 0.8414611, -0.24955738, -0.3606737, -0.31556132, 0.010027909, 0.0052621653, 0.13856316, 0
227, 1811012464, 0.8414296, -0.24959764, -0.36064532, -0.31564587, 0.014407421, -0.010672073, 0.15533352, 0
228, 1811029131, 0.8414923, -0.2495142, -0.36067867, -0.31550664, 0.015568571, 1.8082198E-4, 0.14855671, 0
229, 1811045798, 0.84149015, -0.24951734, -0.36067733, -0.31551144, -0.002374825, 8.303506E-4, 0.15283108, 0
230, 1811062465, 0.84153855, -0.24945635, -0.36070442, -0.3153997, 0.0112210205, -0.010914585, 0.14770794, 0
231, 1811079132, 0.84152126, -0.24946545, -0.36069077, -0.31545413, -3.017425E-5, -0.0033439773, 0.14174461, 0
232, 1811095799, 0.8415088, -0.24947987, -0.36069006, -0.31547663, -5.918623E-4, -0.0026477345, 0.15540218, 0
233, 1811112466, 0.84146655, -0.24952699, -0.36066335, -0.31558272, 0.01079657, -0.00266271, 0.15236092, 0
234, 1811129133, 0.8414811, -0.24950898, -0.360651, -0.31557193, 0.022115042, -0.01165173, 0.14055443, 0
235, 1811145800, 0.8414696, -0.24952668, -0.36062223, -0.3156215, 0.050128143, -0.018463064, 0.15596771, 0
236, 1811162467, 0.84147596, -0.24953324, -0.3606039, -0.3156206, 0.0038433052, 0.003287205, 0.1342907, 0
237, 1811179134, 0.84147036, -0.24954878, -0.36060467, -0.31562242, 0.0014003087, 0.01739512, 0.13398743, 0
238, 1811195801, 0.84147507, -0.24954888, -0.36062273, -0.3155891, 0.0073553645, -0.0038234126, 0.1414442, 0
239, 1811212468, 0.84148157, -0.24954833, -0.36062235, -0.3155724, 0.017940491, -0.016928202, 0.15999222, 0
240, 1811229135, 0.8414763, -0.24956034, -0.36061624, -0.31558394, -0.011190847, -0.011321825, 0.14214039, 0
241, 1811245802, 0.8414983, -0.2495274, -0.3606473, -0.3155161, -0.021568777, -0.0150945, 0.15836143, 0
242, 1811262469, 0.8414906, -0.2495145, -0.36065906, -0.31553334, -0.0024168456, -0.013619762, 0.16024208, 0
243, 1811279136, 0.8414277, -0.24958165, -0.3606144, -0.31569898, 0.03221112, -0.021649241, 0.15447998, 0
244, 1811295803, 0.84143054, -0.24957557, -0.36060262, -0.31570935, 0.048277456, -0.0041318606, 0.13913059, 0
245, 1811312470, 0.84146357, -0.24955297, -0.36061144, -0.31562912, 0.01894004, 0.0054499162, 0.12370491, 0
246, 1811329137, 0.8414662, -0.24956715, -0.36058423, -0.315642, -0.008503551, -0.004949918, 0.14195824, 0
247, 1811345804, 0.84148836, -0.2495402, -0.36058015, -0.31560892, -0.01943691, 0.016815774, 0.12321663, 0
248, 1811362471, 0.8414886, -0.24953353, -0.36058, -0.31561378, -0.015644565, 0.008876147, 0.14731884, 0
249, 1811379138, 0.8414906, -0.24952686, -0.36060217, -0.3155883, 0.0028909165, -0.01560925, 0.15791607, 0
250, 1811395805, 0.8414825, -0.24952494, -0.3606073, -0.3156055, 0.008857818, -0.016643222, 0.1536541, 0
251, 1811412472, 0.84148735, -0.24951923, -0.36060145, -0.31560385, 0.016381264, -0.027799424, 0.15459156, 0
252, 1811429139, 0.84147596, -0.24953666, -0.36058116, -0.31564352, 0.014050472, -0.0108446255, 0.15125847, 0
253, 1811445806, 0.84149927, -0.24951135, -0.360604, -0.31557533, 0.025281774, -6.9221965E-4, 0.13759804, 0
254, 1811462473, 0.8415087, -0.2495047, -0.3606075, -0.31555173, 0.0033681167, 0.0074521457, 0.1480627, 0
255, 1811479140, 0.8415556, -0.24944651, -0.3606345, -0.31544176, 0.0052874223, -0.005844193, 0.15433502, 0
256, 1811495807, 0.84154564, -0.2494622, -0.36061916, -0.3154734, -0.009034393, 0.006983439, 0.14548111, 0
257, 1811512474, 0.84159964, -0.24939583, -0.3606653, -0.31532905, 0.0014228835, 0.006538201, 0.14121628, 0
258, 1811529141, 0.84159255, -0.24939564, -0.36066365, -0.31535012, 0.0105039915, -0.005965784, 0.13699245, 0
259, 1811545808, 0.8416113, -0.24937804, -0.36066678, -0.31531045, 0.003971602, -0.024060275, 0.15190601, 0
260, 1811562475, 0.8416242, -0.24937354, -0.36064407, -0.3153054, 0.007004449, -0.013870767, 0.14723778, 0
261, 1811579142, 0.84160644, -0.24939787, -0.36062038, -0.31536052, 0.0011984764, -0.004542677, 0.14021969, 0
262, 1811595809, 0.8416959, -0.24929148, -0.36069965, -0.3151152, 0.016812198, -0.0028779528, 0.14635658, 0
263, 1811612476, 0.841796, -0.2491767, -0.36075288, -0.3148775, 0.01936695, -8.522549E-4, 0.14496899, 0
264, 1811629143, 0.8418342, -0.24912935, -0.3607628, -0.3148013, 0.003491943, -0.0028455434, 0.12730122, 0
265, 1811645810, 0.8418633, -0.24909149, -0.36077, -0.31474555, 0.005003114, -0.001993959, 0.14144039, 0
266, 1811662477, 0.841824, -0.2491135, -0.36077312, -0.31482962, -0.015897136, -0.008297695, 0.13420296, 0
267, 1811679144, 0.84176254, -0.249174, -0.3607397, -0.3149843, -0.00429279, -0.0036104047, 0.15372086, 0
268, 1811695811, 0.8417664, -0.2491527, -0.36076498, -0.31496158, 0.005144821, -0.009219015, 0.14105797, 0
269, 1811712478, 0.8418069, -0.24909237, -0.36078632, -0.314877, 0.0031524268, -0.016430661, 0.1519804, 0
270, 1811729145, 0.84178734, -0.24909626, -0.3607869, -0.31492543, 0.015410772, -0.021179864, 0.12938786, 0
271, 1811745812, 0.84178877, -0.24908668, -0.36078888, -0.31492713, 0.0077628284, 0.0067170113, 0.15088749, 0
272, 1811762479, 0.8417782, -0.2490997, -0.3607881, -0.3149456, 0.011113288, 0.008756567, 0.15550518, 0
273, 1811779146, 0.84178066, -0.24909553, -0.36080927, -0.314918, 0.030739961, -0.0073437416, 0.14959621, 0
274, 1811795813, 0.8417938, -0.24909142, -0.36081204, -0.3148834, 0.017524086, -0.007600558, 0.15364361, 0
275, 1811812480, 0.8418453, -0.24903318, -0.36083788, -0.31476215, 9.807749E-4, 0.008437614, 0.1506319, 0
276, 1811829147, 0.84183633, -0.24903959, -0.3608251, -0.3147956, -0.005896942, -0.005745624, 0.15349007, 0
277, 1811845814, 0.84183437, -0.24903822, -0.36082006, -0.31480756, -0.005181701, -0.0018415232, 0.13639164, 0
278, 1811862481, 0.84185934, -0.24900909, -0.3608468, -0.31473303, 0.00469109, -0.028032549, 0.14783192, 0
279, 1811879148, 0.8418591, -0.24899836, -0.36086658, -0.31471944, 0.038214456, -0.02302988, 0.14221668, 0
280, 1811895815, 0.8418925, -0.24896343, -0.3608934, -0.3146272, 0.045279477, -0.0042503225, 0.15425777, 0
281, 1811912482, 0.8419055, -0.2489656, -0.36087337, -0.31461364, 0.007976954, 6.5109326E-4, 0.13055897, 0
282, 1811929149, 0.8419195, -0.24894837, -0.36087856, -0.31458372, 0.0072860755, 0.026180072, 0.1389103, 0
283, 1811945816, 0.84190375, -0.24896695, -0.36087048, -0.3146206, -0.011496389, 0.0086273765, 0.15493774, 0
284, 1811962483, 0.8418879, -0.24897352, -0.36087525, -0.31465223, -0.018304594, 0.007766628, 0.14919853, 0
285, 1811979150, 0.84189206, -0.24896383, -0.36090523, -0.31461436, 0.0016691948, -0.0066383346, 0.15735912, 0
286, 1811995817, 0.84194213, -0.24889342, -0.36096382, -0.3144687, 0.0072286325, -0.010111279, 0.14182568, 0
287, 1812012484, 0.84192735, -0.24889198, -0.36099872, -0.3144695, 0.011219456, -0.008749191, 0.14493847, 0
288, 1812029151, 0.84190995, -0.24889925, -0.36101162, -0.31449568, 0.016417697, -0.02505759, 0.1628952, 0
289, 1812045818, 0.84188634, -0.2489114, -0.36100027, -0.31456226, 0.017441833, -0.0076128514, 0.15103436, 0
290, 1812062485, 0.8418958, -0.24888995, -0.36101454, -0.3145374, 0.0043350337, 0.006686837, 0.16610527, 0
291, 1812079152, 0.8419588, -0.24882528, -0.36105022, -0.31437898, 0.0056899693, -1.5131827E-4, 0.16258907, 0
292, 1812095819, 0.8419529, -0.2488328, -0.36106992, -0.31436613, 0.001655784, 0.008811551, 0.15097904, 0
293, 1812112486, 0.8419425, -0.24885604, -0.3610696, -0.31437594, 0.02002296, -0.012451683, 0.15249538, 0
294, 1812129153, 0.8419191, -0.24886584, -0.36106822, -0.31443247, 0.0046010143, -0.014239564, 0.15809536, 0
295, 1812145820, 0.84191704, -0.24885829, -0.36107352, -0.31443813, 0.002200485, -0.00735827, 0.1425581, 0
296, 1812162487, 0.8419308, -0.24884105, -0.36106506, -0.31442443, 0.0097541055, 0.018972674, 0.15612888, 0
297, 1812179154, 0.84198684, -0.2487727, -0.36109552, -0.31429353, 0.01084552, -0.008103909, 0.15056992, 0
298, 1812195821, 0.84197414, -0.24877447, -0.36109105, -0.31433114, -0.0038062022, -0.01269643, 0.1466341, 0
299, 1812212488, 0.84196335, -0.24877279, -0.3610905, -0.314362, 0.008236899, -0.017318007, 0.13090706, 0
300, 1812229155, 0.8420006, -0.24871661, -0.36111385, -0.3142798, 0.017741565, -0.0010771089, 0.14984226, 0
301, 1812245822, 0.8419879, -0.24871765, -0.36111835, -0.31430805, 0.012659551, 0.0043674433, 0.13899899, 0
302, 1812262489, 0.8419813, -0.24871705, -0.3611296, -0.3143132, 0.015408089, -0.0017246259, 0.14431286, 0
303, 1812279156, 0.84197325, -0.24871635, -0.36114234, -0.31432047, -0.0059280107, -0.006846872, 0.13391972, 0
304, 1812295823, 0.8419832, -0.24870865, -0.36113065, -0.31431386, 0.025870731, -0.0039776363, 0.1549015, 0
305, 1812312490, 0.8419777, -0.24871518, -0.3611243, -0.31433028, 0.006420857, 0.0038882315, 0.15277386, 0
306, 1812329157, 0.8419727, -0.24871883, -0.36110565, -0.31436223, 0.009262376, -0.004634094, 0.14171314, 0
307, 1812345824, 0.8419714, -0.24872509, -0.36108857, -0.31438032, -6.9400773E-4, 0.004640129, 0.15458965, 0
308, 1812362491, 0.84198534, -0.24869439, -0.36111188, -0.31434035, 0.010557635, -0.003751665, 0.15195847, 0
309, 1812379158, 0.84194905, -0.24875121, -0.3610625, -0.31444934, 0.008701806, -0.0029584174, 0.1465931, 0
310, 1812395825, 0.84196895, -0.24873254, -0.36107102, -0.3144014, -0.010518744, 0.015925745, 0.14042091, 0
311, 1812412492, 0.84196633, -0.24871162, -0.3611175, -0.3143714, -0.026984049, 0.0013933798, 0.14032364, 0
312, 1812429159, 0.84190345, -0.24876672, -0.3611158, -0.31449807, 0.0066906367, -0.023592016, 0.13959026, 0
313, 1812445826, 0.8419225, -0.24875012, -0.3611274, -0.3144468, 0.016621988, -0.01721251, 0.15696621, 0
314, 1812462493, 0.84193, -0.24874043, -0.36111182, -0.31445268, 0.029079482, -0.022778206, 0.13860703, 0
315, 1812479160, 0.84191793, -0.24875398, -0.36107248, -0.31451946, 0.020391533, -0.0068982802, 0.13733006, 0
316, 1812495827, 0.8419127, -0.24875148, -0.3610733, -0.3145347, -0.0012255216, 0.008835915, 0.14578056, 0
317, 1812512494, 0.8418917, -0.24876663, -0.36107546, -0.3145762, 0.008103685, -0.0019635614, 0.15098953, 0
318, 1812529161, 0.8418926, -0.2487592, -0.3610729, -0.3145825, 6.9110206E-4, -0.00590253, 0.14577866, 0
319, 1812545828, 0.8418722, -0.24877253, -0.36110464, -0.3145898, -0.010642793, -0.0012740239, 0.14473057, 0
320, 1812562495, 0.8418575, -0.2487756, -0.36111704, -0.3146127, 0.013039298, -0.012988785, 0.14655876, 0
321, 1812579162, 0.8418124, -0.24881995, -0.3610773, -0.314744, 0.026743772, -0.025299879, 0.129632, 0
322, 1812595829, 0.84175336, -0.24887264, -0.3610288, -0.31491584, 0.032792255, -0.019131145, 0.13963509, 0
323, 1812612496, 0.84177583, -0.24883349, -0.3610312, -0.31488383, 0.015287839, -0.001576884, 0.14703846, 0
324, 1812629163, 0.84179324, -0.24880332, -0.36104155, -0.31484932, 0.016903838, 0.0064691356, 0.15573311, 0
325, 1812645830, 0.8417495, -0.24887224, -0.36099747, -0.31496245, 0.020039948, 0.0010545341, 0.16031647, 0
326, 1812662497, 0.8417703, -0.24885462, -0.36101088, -0.3149053, 0.008041326, -5.7040504E-4, 0.14400387, 0
327, 1812679164, 0.84177047, -0.24885058, -0.36099893, -0.314922, 0.00920784, -0.013265047, 0.13268661, 0
328, 1812695831, 0.84178156, -0.24884117, -0.3609844, -0.31491607, 0.022619065, -0.012913237, 0.14949131, 0
329, 1812712498, 0.8417688, -0.24884689, -0.36094925, -0.3149857, 0.0028444258, 8.5896027E-4, 0.15099716, 0
330, 1812729165, 0.84179467, -0.24881047, -0.36095253, -0.31494176, -8.1224606E-4, -0.011107253, 0.1510582, 0
331, 1812745832, 0.84177923, -0.24881114, -0.3609348, -0.31500298, -0.011321154, -1.8551575E-5, 0.13147163, 0
332, 1812762499, 0.84180415, -0.24877451, -0.36097863, -0.31491506, 0.0043529146, -0.0017921269, 0.14534092, 0
333, 1812779166, 0.8418713, -0.2486849, -0.36102232, -0.31475613, 0.027105862, -0.0059646666, 0.15106869, 0
334, 1812795833, 0.8418733, -0.24865147, -0.3610539, -0.31474113, -0.0062154485, 0.002985686, 0.14291, 0
335, 1812812500, 0.84186715, -0.24862653, -0.36109012, -0.31473604, 9.074626E-5, -0.001250555, 0.13817978, 0
336, 1812829167, 0.8418555, -0.24862288, -0.36109966, -0.31475854, 0.028799867, 0.0013893566, 0.14485359, 0
337, 1812845834, 0.84188205, -0.24860384, -0.36110875, -0.31469232, 0.023155048, -0.013189499, 0.16734028, 0
338, 1812862501, 0.84191215, -0.24860577, -0.36107615, -0.3146477, 0.012920613, -0.004737357, 0.14161968, 0
339, 1812879168, 0.84192514, -0.2486053, -0.36107147, -0.3146187, -0.026214046, 0.0100381905, 0.12868309, 0
340, 1812895835, 0.841917, -0.2486107, -0.3610982, -0.3146055, -0.0076508485, 0.004704724, 0.14340115, 0
341, 1812912502, 0.84191453, -0.24862693, -0.3610961, -0.31460172, 0.02033208, -0.019789614, 0.15137768, 0
342, 1812929169, 0.84192175, -0.24862897, -0.36107937, -0.31460023, 0.025076812, -0.018052248, 0.15800476, 0
343, 1812945836, 0.84195554, -0.24861498, -0.36107224, -0.31452855, 0.018917913, -4.4613186E-4, 0.15601921, 0
344, 1812962503, 0.8419514, -0.24863997, -0.36103442, -0.31456336, 0.008529254, 0.009837699, 0.13114166, 0
345, 1812979170, 0.8419512, -0.24865288, -0.36101755, -0.31457314, 0.008531713, -0.012989456, 0.15413284, 0
346, 1812995837, 0.84196115, -0.2486669, -0.36099127, -0.31456575, 0.004244958, 0.0015218997, 0.15529919, 0
347, 1813012504, 0.8419826, -0.24865332, -0.3609932, -0.31451687, 0.008094521, 0.011932239, 0.14262962, 0
348, 1813029171, 0.84199584, -0.2486478, -0.36098778, -0.3144921, -9.275788E-4, 0.013439164, 0.15770149, 0
349, 1813045838, 0.84199005, -0.24865848, -0.360995, -0.31449065, 0.016331421, -0.0039803186, 0.16517448, 0
350, 1813062505, 0.84198385, -0.24867548, -0.36099136, -0.3144977, -9.318255E-4, -3.1962353E-4, 0.142272, 0
351, 1813079172, 0.8419896, -0.24866864, -0.3610115, -0.31446505, 0.0054034255, 0.0010679449, 0.14478493, 0
352, 1813095839, 0.84198385, -0.2486809, -0.36100826, -0.31447423, 0.0144773815, -0.012788964, 0.15431786, 0
353, 1813112506, 0.8419763, -0.24871169, -0.36097822, -0.31450486, 0.010509132, -0.01143984, 0.16143227, 0
354, 1813129173, 0.8420079, -0.24868426, -0.3609928, -0.31442508, -0.011189729, 0.013559413, 0.14198208, 0
355, 1813145840, 0.84200484, -0.24869354, -0.36099756, -0.31442043, -0.002736469, 0.0051392335, 0.14966202, 0
356, 1813162507, 0.84199965, -0.24869433, -0.36101773, -0.3144103, 0.0035073652, -0.0029197498, 0.13143635, 0
357, 1813179174, 0.8419954, -0.24868974, -0.36103967, -0.31440032, -0.005609505, -0.0031754486, 0.14513874, 0
358, 1813195841, 0.8420083, -0.24867748, -0.3610673, -0.31434387, 0.009177889, -0.006039767, 0.14749336, 0
359, 1813212508, 0.8420322, -0.24863735, -0.36111337, -0.31425834, 0.012993478, -0.0060263565, 0.16103363, 0
360, 1813229175, 0.84208274, -0.24856043, -0.3611914, -0.31409413, 0.020499714, -6.0504954E-4, 0.14528656, 0
361, 1813245842, 0.84204984, -0.24858576, -0.36121896, -0.31413093, 0.010309535, -0.009675429, 0.11874008, 0
362, 1813262509, 0.8420459, -0.2485792, -0.36126515, -0.31409314, 0.0032369145, -0.018324263, 0.15548801, 0
363, 1813279176, 0.8420315, -0.24858345, -0.36129677, -0.31409207, 0.002543801, -0.003975178, 0.16016197, 0
364, 1813295843, 0.8420335, -0.24858756, -0.36131206, -0.31406572, 0.009752764, -0.0014555163, 0.15405941, 0
365, 1813312510, 0.84206474, -0.24854627, -0.36134434, -0.3139774, 0.012140106, 0.0034114781, 0.15078259, 0
366, 1813329177, 0.8420375, -0.2485872, -0.3613293, -0.31403536, 0.012337916, -0.004095651, 0.1507206, 0
367, 1813345844, 0.8420741, -0.24855211, -0.36134857, -0.3139432, -0.0010203366, 0.007041999, 0.15386677, 0
368, 1813362511, 0.8420723, -0.24854563, -0.36135805, -0.31394222, -0.024004174, 0.0041079447, 0.13464451, 0
369, 1813379178, 0.84199846, -0.24861608, -0.36135852, -0.3140841, -0.010940288, 0.0115681365, 0.14629269, 0
370, 1813395845, 0.84199613, -0.24861224, -0.36138853, -0.3140587, 0.01623911, -0.01055987, 0.15901661, 0
371, 1813412512, 0.8420057, -0.2486088, -0.36139005, -0.31403401, 0.016096955, -0.010438055, 0.16239738, 0
372, 1813429179, 0.8420214, -0.24860403, -0.36137566, -0.31401223, 0.01031557, 0.002372143, 0.13280487, 0
373, 1813445846, 0.8420133, -0.24860908, -0.36138406, -0.31402025, -0.022159297, 0.019723007, 0.12963581, 0
374, 1813462513, 0.84199655, -0.24861784, -0.36139438, -0.31404623, 0.02196149, -0.0061671697, 0.1546545, 0
375, 1813479180, 0.84194887, -0.24867763, -0.3613585, -0.3141681, 0.020892203, -0.007033729, 0.15661716, 0
376, 1813495847, 0.8419293, -0.2487076, -0.36133042, -0.31422928, 0.010399834, 4.897169E-4, 0.13619423, 0
377, 1813512514, 0.841941, -0.24869995, -0.36133617, -0.3141971, -0.020418802, -0.0013627585, 0.12858486, 0
378, 1813529181, 0.8418962, -0.24874882, -0.36129856, -0.3143218, 0.0033526944, -0.007499977, 0.15118504, 0
379, 1813545848, 0.8418959, -0.24874547, -0.3613126, -0.3143092, 0.0027653023, -0.010245163, 0.14156818, 0
380, 1813562515, 0.8418924, -0.24874474, -0.36130992, -0.31432232, 0.015816446, -0.003303298, 0.1549015, 0
381, 1813579182, 0.8419064, -0.24874133, -0.36130056, -0.31429794, 0.01250555, -0.0050098193, 0.15926075, 0
382, 1813595849, 0.841909, -0.24873996, -0.36131343, -0.31427738, 0.006919514, 0.017173618, 0.14104748, 0
383, 1813612516, 0.841906, -0.24874061, -0.36130908, -0.31428984, 0.0053645344, -0.0021754515, 0.14198303, 0
384, 1813629183, 0.8418821, -0.24874766, -0.36131868, -0.31433743, 4.8412906E-4, 0.008309765, 0.13854122, 0
385, 1813645850, 0.8418693, -0.24874392, -0.36133784, -0.31435287, 0.0058419583, 0.0014467994, 0.14483929, 0
386, 1813662517, 0.8418815, -0.24872689, -0.36135352, -0.31431562, 0.046168614, 0.0044865757, 0.14518261, 0
387, 1813679184, 0.84188443, -0.24873692, -0.3613358, -0.31432, 0.03200683, 0.010736221, 0.14429092, 0
388, 1813695851, 0.84188735, -0.24876453, -0.36128798, -0.31434527, 0.0032143397, -0.002827439, 0.1403141, 0
389, 1813712518, 0.8418927, -0.24877991, -0.36126375, -0.31434643, -0.011567466, 0.017652383, 0.14338112, 0
390, 1813729185, 0.84187454, -0.24881528, -0.36123696, -0.31439787, -0.008210525, 0.0050037843, 0.14295769, 0
391, 1813745852, 0.8419174, -0.24877392, -0.3612567, -0.3142933, 0.008699795, -0.010235106, 0.14635086, 0
392, 1813762519, 0.8419587, -0.24872686, -0.36128435, -0.31418824, -0.0064639947, -0.0028207335, 0.14953136, 0
393, 1813779186, 0.84193814, -0.24875021, -0.36126938, -0.31424215, -0.0013068803, 0.024719415, 0.14709187, 0
394, 1813795853, 0.84190774, -0.24877971, -0.36129516, -0.31427047, 0.0065576467, -0.0042203716, 0.14188385, 0
395, 1813812520, 0.84187764, -0.24878156, -0.3613876, -0.31424338, 1.4438937E-4, 0.0069121383, 0.14821243, 0
396, 1813829187, 0.8418513, -0.248785, -0.36148614, -0.31419772, 0.0014025437, 0.009796126, 0.16826248, 0
397, 1813845854, 0.8418444, -0.2487802, -0.36156783, -0.31412607, 0.021624207, 9.1528555E-4, 0.16884327, 0
398, 1813862521, 0.841806, -0.24881728, -0.36165294, -0.31410167, 0.023482941, -0.0018958369, 0.13803005, 0
399, 1813879188, 0.8417815, -0.24885267, -0.36175358, -0.31402317, 0.0034548398, -0.0020413438, 0.13622284, 0
400, 1813895855, 0.8417493, -0.24891523, -0.36181164, -0.31399313, 0.039833587, -0.010083117, 0.14165401, 0
401, 1813912522, 0.84171164, -0.24901164, -0.36179048, -0.31404203, 0.03294402, -0.01955023, 0.157691, 0
402, 1813929189, 0.8417102, -0.24907081, -0.36176476, -0.31402856, 0.022312181, -0.018109243, 0.14795017, 0
403, 1813945856, 0.8417145, -0.24911422, -0.36175615, -0.3139927, -0.011829199, 0.013743364, 0.15338516, 0
404, 1813962523, 0.84171987, -0.24916476, -0.36174363, -0.31395268, 0.0094009545, -0.0018375, 0.1582222, 0
405, 1813979190, 0.8417532, -0.2492053, -0.3616911, -0.31389162, 0.019220103, -0.013669382, 0.16569519, 0
406, 1813995857, 0.84183, -0.24919468, -0.36166668, -0.3137222, -0.0074682385, 0.012177656, 0.14120007, 0
407, 1814012524, 0.84185255, -0.24923961, -0.36162278, -0.31367666, 0.026859552, -0.003605264, 0.15260124, 0
408, 1814029191, 0.8418744, -0.24929892, -0.36158675, -0.31361225, 0.037756927, -0.0140301315, 0.17289352, 0
409, 1814045858, 0.84192413, -0.24929759, -0.36155117, -0.3135208, 4.9396363E-5, -0.0038761618, 0.14434719, 0
410, 1814062525, 0.84193295, -0.24927403, -0.36154637, -0.3135215, -0.047991138, 0.016216759, 0.100354195, 0
411, 1814079192, 0.8418945, -0.24925464, -0.3615966, -0.31358185, -0.025947172, 0.007123358, 0.14057827, 0
412, 1814095859, 0.8418964, -0.2492342, -0.3616295, -0.31355536, 0.019171825, -8.064347E-4, 0.17931843, 0
413, 1814112526, 0.8418838, -0.24926935, -0.36163765, -0.313552, 0.01390787, 0.0070160716, 0.16528225, 0
414, 1814129193, 0.84192574, -0.24928641, -0.3615996, -0.31346965, 0.03687472, -0.03214608, 0.18833733, 0
415, 1814145860, 0.8419989, -0.24927908, -0.3614938, -0.31340107, 0.031927038, -0.018152827, 0.15454769, 0
416, 1814162527, 0.84212387, -0.24915496, -0.36125252, -0.3134423, 0.026903138, -0.049811427, 0.11630726, 0
417, 1814179194, 0.8421909, -0.24905679, -0.3612459, -0.31334737, -0.10918004, 0.10711523, 0.116514206, 0
418, 1814195861, 0.84217614, -0.24900545, -0.3613233, -0.3133386, -0.045567587, 0.026320662, 0.13272, 0
419, 1814212528, 0.8421052, -0.24895293, -0.3614052, -0.3134767, -0.02262197, -0.013538403, 0.14170074, 0
420, 1814229195, 0.8420615, -0.24881747, -0.36137646, -0.31373474, -0.0071166526, -0.106359534, 0.13063335, 0
421, 1814245862, 0.84196913, -0.24885553, -0.36133286, -0.31400263, 0.026677165, 0.09963984, 0.22821045, 0
422, 1814262529, 0.8419518, -0.24882789, -0.36146381, -0.31392056, -0.02039578, 0.029788243, 0.1397028, 0
423, 1814279196, 0.8419386, -0.24874377, -0.36153975, -0.31393468, 0.007961755, -0.0091086, 0.086167336, 0
424, 1814295863, 0.84188366, -0.24867922, -0.36161402, -0.3140475, 0.033576116, -0.012639434, 0.17690372, 0
425, 1814312530, 0.8418457, -0.24868155, -0.36161956, -0.31414115, 0.08191348, -0.033741068, 0.20764828, 0
426, 1814329197, 0.8419173, -0.24856369, -0.36162668, -0.31403422, -0.0036448257, 0.02822164, 0.14495087, 0
427, 1814345864, 0.84190685, -0.248485, -0.36173728, -0.31399718, -0.040905777, 0.028939117, 0.13868713, 0
428, 1814362531, 0.8419043, -0.24835429, -0.3619037, -0.31391588, -0.02210029, 0.009927775, 0.12827873, 0
429, 1814379198, 0.8418349, -0.24827468, -0.36201206, -0.31403998, -0.006683931, -0.0123551255, 0.13017464, 0
430, 1814395865, 0.84178257, -0.24818137, -0.36224642, -0.3139835, -0.013860933, 0.009380615, 0.16295147, 0
431, 1814412532, 0.84165007, -0.24816075, -0.36249322, -0.3140704, -0.007459298, 0.00540052, 0.115187645, 0
432, 1814429199, 0.8414876, -0.24818236, -0.3628856, -0.31403592, -0.040277034, 0.055414673, 0.15904045, 0
433, 1814445866, 0.8413149, -0.248176, -0.36336038, -0.31395453, -0.039337385, 0.022890856, 0.091192245, 0
434, 1814462533, 0.84119844, -0.2481255, -0.36375648, -0.31384802, 0.045732763, -0.0035192114, 0.15615845, 0
435, 1814479200, 0.8410634, -0.24817315, -0.363985, -0.31390697, 0.10508104, -0.027235724, 0.21365929, 0
436, 1814495867, 0.84105694, -0.24813041, -0.36419323, -0.31371668, 0.08540989, -0.06579216, 0.17451191, 0
437, 1814512534, 0.84127945, -0.24787572, -0.36388433, -0.31367958, 0.2305706, -0.30032855, 0.1960926, 0
438, 1814529201, 0.8419618, -0.24733141, -0.36264646, -0.31371242, 0.17768118, -0.042845868, 0.18001366, 0
439, 1814545868, 0.8422245, -0.24717744, -0.36218688, -0.31365916, -0.21234715, 0.27934214, 0.21027565, 0
440, 1814562535, 0.84205157, -0.24731492, -0.3625425, -0.31360424, -0.33688632, 0.16752677, -0.06809902, 0
441, 1814579202, 0.84185725, -0.24738756, -0.3629866, -0.3135547, -0.07546066, 0.008190408, 0.13230419, 0
442, 1814595869, 0.8416964, -0.24747322, -0.363345, -0.313504, 0.10581483, -0.050047234, 0.24052334, 0
443, 1814612536, 0.84159523, -0.24759464, -0.36359552, -0.31338912, 0.12261004, -0.06471639, 0.1946621, 0
444, 1814629203, 0.8414712, -0.24781044, -0.36362356, -0.3135193, 0.07047833, -0.025736623, 0.17043686, 0
445, 1814645870, 0.84148335, -0.24786721, -0.36363807, -0.31342483, 0.016213182, -0.026008414, 0.12644768, 0
446, 1814662537, 0.8413961, -0.24801412, -0.36358047, -0.31360966, -0.021604538, 0.0023209585, 0.12977219, 0
447, 1814679204, 0.8411532, -0.24831778, -0.36362785, -0.31396577, -0.031066066, 0.019006647, 0.10986519, 0
448, 1814695871, 0.8408953, -0.24868143, -0.363753, -0.31422397, 0.018059846, -0.012031926, 0.17401314, 0
449, 1814712538, 0.84064037, -0.24901645, -0.3637468, -0.31464756, 0.010400058, -0.06071819, 0.13298988, 0
450, 1814729205, 0.8406197, -0.24902448, -0.36362863, -0.31483266, 0.049843166, -0.041789547, 0.11662769, 0
451, 1814745872, 0.8406513, -0.24909154, -0.36336485, -0.3150001, 0.07792533, 0.039847888, 0.20704174, 0
452, 1814762539, 0.84068435, -0.24915011, -0.3631494, -0.31511393, -0.07207019, 0.04057498, 0.06398392, 0
453, 1814779206, 0.8406949, -0.24919365, -0.36303666, -0.31518084, -0.04400903, 0.03878218, 0.1436758, 0
454, 1814795873, 0.8407097, -0.24918933, -0.36297476, -0.31521624, -0.024470646, 0.0060339556, 0.12687492, 0
455, 1814812540, 0.84073377, -0.24915442, -0.36291778, -0.31524533, 0.021313526, 3.746077E-4, 0.15950966, 0
456, 1814829207, 0.8407767, -0.2491212, -0.36282733, -0.3152612, 0.016719887, -0.018491004, 0.15027046, 0
457, 1814845874, 0.84085757, -0.24903023, -0.36278152, -0.31517008, 0.021247588, 0.00940006, 0.13542557, 0
458, 1814862541, 0.84087896, -0.24904189, -0.36268637, -0.31521344, 0.03390736, 0.01373666, 0.15305996, 0
459, 1814879208, 0.8409178, -0.24903293, -0.36258867, -0.3152291, 0.014373895, 0.009670735, 0.14376736, 0
460, 1814895875, 0.84095883, -0.24900167, -0.3625174, -0.31522644, 0.011276228, 0.038968813, 0.15997791, 0
461, 1814912542, 0.8409438, -0.24903113, -0.36243832, -0.315334, -0.0022545753, 0.010820933, 0.14368439, 0
462, 1814929209, 0.8409048, -0.24913089, -0.3624576, -0.315337, -0.0066729793, 0.019801907, 0.19185162, 0
463, 1814945876, 0.8409022, -0.24915826, -0.36247355, -0.31530434, -0.0053265374, -0.0011832776, 0.09902382, 0
464, 1814962543, 0.8408687, -0.24921644, -0.3624797, -0.31534034, -0.0016030349, 0.004784295, 0.15981388, 0
465, 1814979210, 0.84082896, -0.24925941, -0.36249775, -0.31539145, 0.012681007, -0.005318938, 0.123312, 0
466, 1814995877, 0.8408328, -0.24924855, -0.36250108, -0.31538606, 0.027634248, -0.0058189365, 0.17246151, 0
467, 1815012544, 0.8408104, -0.24928331, -0.36246088, -0.31546444, 0.011893795, 0.019652152, 0.13816929, 0
468, 1815029211, 0.8408007, -0.24930246, -0.36247683, -0.315457, 0.0015596735, 0.020591354, 0.13446712, 0
469, 1815045878, 0.8407911, -0.24931078, -0.36246732, -0.3154871, 3.6767882E-4, 0.0050983303, 0.13121986, 0
470, 1815062545, 0.84081316, -0.24930158, -0.36243036, -0.31547776, 0.011536174, -0.01168928, 0.1548872, 0
471, 1815079212, 0.84083426, -0.24930222, -0.36235157, -0.31551152, -7.5145054E-4, -0.0051855007, 0.12040615, 0
472, 1815095879, 0.8408702, -0.24931385, -0.36226565, -0.31550512, 0.034178708, 0.0038826435, 0.16656017, 0
473, 1815112546, 0.8409542, -0.24929307, -0.36216184, -0.31541687, 0.026596477, -0.015558289, 0.15707588, 0
474, 1815129213, 0.8409755, -0.24931331, -0.36209178, -0.31542453, -0.026839659, 0.02551825, 0.11568546, 0
475, 1815145880, 0.84097487, -0.24935919, -0.3620479, -0.31544068, -0.009115082, 0.01466178, 0.15111828, 0
476, 1815162547, 0.8409701, -0.24942349, -0.3619797, -0.31548047, 0.020135835, -0.018507097, 0.16122246, 0
477, 1815179214, 0.84099394, -0.24944855, -0.36190295, -0.31548512, 0.014344838, 0.005101683, 0.14208317, 0
478, 1815195881, 0.841004, -0.24947909, -0.361815, -0.3155348, 0.0013743811, 0.0015183236, 0.13908005, 0
479, 1815212548, 0.8410142, -0.24949338, -0.36174017, -0.31558257, 0.0036164396, -0.014436032, 0.14359379, 0
480, 1815229215, 0.84102744, -0.24950743, -0.36165693, -0.31563163, 0.028601164, 6.285184E-4, 0.16762352, 0
481, 1815245882, 0.84106195, -0.24952416, -0.3615638, -0.31563312, 0.025035463, -0.01858555, 0.13178158, 0
482, 1815262549, 0.84112585, -0.24950914, -0.36149338, -0.31555542, -0.0145024145, 0.010662238, 0.13502121, 0
483, 1815279216, 0.84114766, -0.24951446, -0.36144367, -0.31555012, -0.017709378, 0.0021443833, 0.1365242, 0
484, 1815295883, 0.8411467, -0.24950942, -0.36143553, -0.31556547, -0.010896927, 0.012035502, 0.14722157, 0
485, 1815312550, 0.8411328, -0.2495211, -0.36141866, -0.31561267, 0.025081506, 0.012978727, 0.15829182, 0
486, 1815329217, 0.84113157, -0.24951741, -0.36141586, -0.3156224, 0.03324554, -0.0017485418, 0.1458273, 0
487, 1815345884, 0.84114057, -0.24952911, -0.36137983, -0.31563035, 0.03441161, -0.012964422, 0.1586628, 0
488, 1815362551, 0.8411856, -0.24950176, -0.36135796, -0.31555685, -0.017036604, 0.0042717797, 0.13484955, 0
489, 1815379218, 0.8411677, -0.24950485, -0.36141056, -0.31554228, -0.04171601, 0.026729692, 0.13567924, 0
490, 1815395885, 0.8411652, -0.24948515, -0.36144847, -0.31552067, 0.005558991, -0.007099889, 0.16196346, 0
491, 1815412552, 0.8411354, -0.24950862, -0.36145476, -0.31557438, 0.016038842, -0.002111527, 0.16901016, 0
492, 1815429219, 0.8411441, -0.24950154, -0.36142772, -0.31558767, 0.024362018, -0.016410321, 0.1422205, 0
493, 1815445886, 0.84116095, -0.24949063, -0.36138237, -0.3156035, 0.01892797, 0.011019189, 0.15744781, 0
494, 1815462553, 0.8411828, -0.24948019, -0.36133552, -0.3156071, 0.036094215, 0.014309523, 0.1587553, 0
495, 1815479220, 0.84122026, -0.24946626, -0.36127898, -0.31558317, 0.035647187, -0.0066403463, 0.15955639, 0
496, 1815495887, 0.8412501, -0.24947992, -0.3611839, -0.31560168, 0.010619547, -5.590059E-4, 0.16397667, 0
497, 1815512554, 0.8413206, -0.24943808, -0.36110115, -0.31554142, -0.033302538, 0.014846178, 0.11449909, 0
498, 1815529221, 0.84129834, -0.2494514, -0.36110398, -0.31558678, -0.05928413, 0.035659928, 0.111260414, 0
499, 1815545888, 0.8412816, -0.24944325, -0.36117253, -0.31555933, -0.0026251597, 0.0074224183, 0.13733578, 0
500, 1815562555, 0.84128034, -0.24943936, -0.36122048, -0.31551096, 0.03191139, -0.001242732, 0.16344833, 0
501, 1815579222, 0.841271, -0.24944308, -0.361235, -0.3155164, 0.037401542, -0.015332765, 0.15255642, 0
502, 1815595889, 0.8412003, -0.24953844, -0.3611416, -0.31573623, 0.015801696, -0.0033562705, 0.14251614, 0
503, 1815612556, 0.84122974, -0.24950595, -0.3611463, -0.31567794, -0.030826014, 0.013731966, 0.1372261, 0
504, 1815629223, 0.8412295, -0.24950506, -0.36113226, -0.31569546, -0.005390462, -3.173884E-4, 0.14304352, 0
505, 1815645890, 0.8412042, -0.24952212, -0.36112478, -0.315758, -0.021868061, 0.01474515, 0.14049911, 0
506, 1815662557, 0.8412134, -0.24949527, -0.36119705, -0.31567225, -0.001233121, 0.021346604, 0.15893745, 0
507, 1815679224, 0.84121317, -0.24948637, -0.3612204, -0.31565315, 0.027616143, 0.0046081664, 0.14352131, 0
508, 1815695891, 0.84122515, -0.24945721, -0.36124837, -0.31561226, 0.0086398935, 0.0015174295, 0.15548229, 0
509, 1815712558, 0.8412394, -0.24943653, -0.36129078, -0.3155422, -0.00266718, 0.013173183, 0.14953804, 0
510, 1815729225, 0.84121454, -0.24946131, -0.3612993, -0.31557927, 0.012140106, 0.007776463, 0.13858223, 0
511, 1815745892, 0.84122235, -0.24945627, -0.36132056, -0.31553775, 0.0048272093, 0.019424394, 0.13769817, 0
512, 1815762559, 0.84121275, -0.24946442, -0.36133343, -0.31554213, -0.004784742, 0.009479855, 0.13470364, 0
513, 1815779226, 0.8411912, -0.24948706, -0.36131588, -0.31560186, 0.0033222965, 0.013843722, 0.1623497, 0
514, 1815795893, 0.8412038, -0.24951108, -0.3612716, -0.31559995, 0.030675141, -0.0052581425, 0.17426968, 0
515, 1815812560, 0.8412287, -0.24950823, -0.3612182, -0.31559685, 0.0051142, -0.0017887742, 0.13820744, 0
516, 1815829227, 0.84123224, -0.249518, -0.3611943, -0.31560716, -0.012198891, 0.031632446, 0.14196873, 0
517, 1815845894, 0.84124076, -0.24948409, -0.3612238, -0.31557757, -0.0057114265, 0.01491569, 0.13828945, 0
518, 1815862561, 0.8412259, -0.24948835, -0.36125687, -0.3155759, 0.0011841716, 0.013020077, 0.15795708, 0
519, 1815879228, 0.8412388, -0.24946421, -0.3612753, -0.31553945, 0.006674544, 0.009459962, 0.14973831, 0
520, 1815895895, 0.8412267, -0.24946423, -0.3613033, -0.3155395, 0.008638329, 3.3906914E-4, 0.15526867, 0
521, 1815912562, 0.84121674, -0.24946737, -0.3613227, -0.31554136, -0.0032820643, 0.008914814, 0.15941143, 0
522, 1815929229, 0.8412292, -0.24943936, -0.3613579, -0.31549, -8.6231297E-4, 0.008634306, 0.142766, 0
523, 1815945896, 0.84122384, -0.24943617, -0.3613674, -0.3154959, 0.030501025, -0.008913697, 0.18166542, 0
524, 1815962563, 0.84123117, -0.24941945, -0.36132503, -0.3155381, 0.039673325, -0.0031119708, 0.1298809, 0
525, 1815979230, 0.8412485, -0.24939986, -0.36129478, -0.31554195, -0.005836147, 0.014176533, 0.14000034, 0
526, 1815995897, 0.8412414, -0.2493947, -0.36130053, -0.31555846, -0.01833566, 0.018127795, 0.13062191, 0
527, 1816012564, 0.8412489, -0.24939339, -0.36131087, -0.31552744, 0.011798355, 0.00594008, 0.1522541, 0
528, 1816029231, 0.8412664, -0.24938664, -0.36131045, -0.3154871, 0.010842614, 0.01259339, 0.15501595, 0
529, 1816045898, 0.8412734, -0.249384, -0.36129364, -0.3154893, 0.038414277, 0.0080980975, 0.15152073, 0
530, 1816062565, 0.8412857, -0.24939299, -0.36126432, -0.3154831, 0.016596507, -0.010911679, 0.13757515, 0
531, 1816079232, 0.8412754, -0.24942032, -0.3612113, -0.31554985, -0.014123336, 0.008669844, 0.12751865, 0
532, 1816095899, 0.8412794, -0.24941806, -0.36119357, -0.3155613, -0.0011671847, 0.0056260447, 0.13831139, 0
533, 1816112566, 0.84130114, -0.2494087, -0.3611847, -0.31552106, 0.0036564483, 0.0019300344, 0.13506508, 0
534, 1816129233, 0.8412808, -0.24944255, -0.36115918, -0.3155776, -0.022706682, 0.014929101, 0.1525383, 0
535, 1816145900, 0.84125614, -0.249477, -0.36115816, -0.31561735, -0.0181421, 0.017881706, 0.16609001, 0
536, 1816162567, 0.84126127, -0.24945408, -0.3611885, -0.31558678, -0.010044002, 0.0061148675, 0.14226913, 0
537, 1816179234, 0.84124124, -0.24945867, -0.36120966, -0.3156125, 0.02170132, -0.003262842, 0.14385891, 0
538, 1816195901, 0.8412347, -0.2494473, -0.36121598, -0.31563166, 0.03933895, -0.011035058, 0.14060497, 0
539, 1816212568, 0.8412653, -0.24942282, -0.3612015, -0.31558582, 0.016397133, -0.009111282, 0.15798187, 0
540, 1816229235, 0.8412652, -0.24943326, -0.3611724, -0.3156111, -0.020514913, 0.024506183, 0.13179398, 0
541, 1816245902, 0.84126204, -0.24942714, -0.36120796, -0.31558374, -0.008552947, 0.021547096, 0.14606571, 0
542, 1816262569, 0.84126306, -0.24941348, -0.36124724, -0.3155471, 0.006280267, 0.0045737457, 0.1462574, 0
543, 1816279236, 0.84129447, -0.24936867, -0.36127415, -0.31546795, 7.977177E-4, 0.00676529, 0.15510368, 0
544, 1816295903, 0.8413111, -0.24933352, -0.36129004, -0.3154333, -7.9592963E-4, 5.52077E-4, 0.15218544, 0
545, 1816312570, 0.84131324, -0.24931718, -0.3613066, -0.31542146, 0.0021966854, -0.0024485844, 0.14785385, 0
546, 1816329237, 0.8412694, -0.24935587, -0.36127844, -0.31554, 0.010536624, -0.0030791145, 0.14538288, 0
547, 1816345904, 0.8412546, -0.24937032, -0.36126995, -0.31557757, 0.00392377, 0.011325625, 0.15234756, 0
548, 1816362571, 0.84126693, -0.24937047, -0.36124167, -0.3155768, 0.007205834, -0.008386876, 0.13609886, 0
549, 1816379238, 0.8412664, -0.24936254, -0.36123136, -0.31559634, 0.0067462916, 0.008625812, 0.14886093, 0
550, 1816395905, 0.84127855, -0.24932437, -0.3612524, -0.31557024, -0.010097645, 0.014567904, 0.14347553, 0
551, 1816412572, 0.8412054, -0.24939978, -0.36122212, -0.31574026, 0.012859371, 0.023749592, 0.15580082, 0
552, 1816429239, 0.8412041, -0.249398, -0.3612107, -0.3157581, 0.007231985, 0.00396132, 0.14396763, 0
553, 1816445906, 0.84121543, -0.24938688, -0.36121124, -0.315736, 0.006316923, -0.0062116487, 0.14231968, 0
554, 1816462573, 0.8412554, -0.24935976, -0.36119413, -0.3156704, 0.028772376, -0.0060551893, 0.149436, 0
555, 1816479240, 0.8412644, -0.24936157, -0.36118567, -0.31565446, 0.0037501003, 0.0068106633, 0.14023018, 0
556, 1816495907, 0.84127647, -0.24934854, -0.36120257, -0.31561342, 0.013779127, -5.52077E-4, 0.14849472, 0
557, 1816512574, 0.8412721, -0.24935132, -0.3611927, -0.3156344, -0.00946175, -0.0017125562, 0.13780689, 0
558, 1816529241, 0.84129107, -0.24929787, -0.3612371, -0.31557515, -0.018626451, 0.02416488, 0.14102554, 0
559, 1816545908, 0.8412845, -0.2492682, -0.36128467, -0.31556156, -0.0056285034, 0.0056036934, 0.14435482, 0
560, 1816562575, 0.8412717, -0.24927184, -0.3613015, -0.31557387, 0.032548852, -0.004148177, 0.15930653, 0
561, 1816579242, 0.84128696, -0.24925643, -0.3613062, -0.31553963, 0.024346596, -0.001664501, 0.14842606, 0
562, 1816595909, 0.84134907, -0.24916622, -0.36135924, -0.3153847, 0.015074608, -3.4935074E-4, 0.1422491, 0
563, 1816612576, 0.84133106, -0.24916321, -0.36139825, -0.31539062, 0.00586498, 0.0077697574, 0.13448334, 0
564, 1816629243, 0.84128505, -0.24918939, -0.36139318, -0.3154981, -2.5771043E-4, -0.0073455297, 0.15331364, 0
565, 1816645910, 0.8412573, -0.249217, -0.3614139, -0.31552666, 0.021345487, 0.024424154, 0.16196537, 0
566, 1816662577, 0.8412484, -0.24923798, -0.36141628, -0.3155311, 0.013510017, -0.002259269, 0.14973354, 0
567, 1816679244, 0.84124804, -0.24923025, -0.3614265, -0.31552634, -0.010429114, 0.0055681546, 0.12364197, 0
568, 1816695911, 0.8412438, -0.24921525, -0.36147058, -0.31549892, 0.002968252, 0.011507341, 0.14283562, 0
569, 1816712578, 0.8412242, -0.24920723, -0.3614922, -0.31553295, 0.016836338, -0.0034345002, 0.14012337, 0
570, 1816729245, 0.8412199, -0.24918012, -0.36153042, -0.31552207, 0.020765247, 0.005218357, 0.14871597, 0
571, 1816745912, 0.8412032, -0.24918522, -0.36153018, -0.31556264, 0.016157305, 0.006776689, 0.15300465, 0
572, 1816762579, 0.84126, -0.24912745, -0.36156777, -0.31541386, 0.010951464, 0.010604349, 0.15599251, 0
573, 1816779246, 0.84129465, -0.24911143, -0.36155877, -0.31534463, 0.0019362927, -0.002656228, 0.14446163, 0
574, 1816795913, 0.8412898, -0.2491228, -0.36154622, -0.3153626, 0.0017219438, 0.01058088, 0.15280628, 0
575, 1816812580, 0.8412368, -0.24919458, -0.36146706, -0.3155381, 0.022590678, 0.0058931424, 0.16291714, 0
576, 1816829247, 0.84124166, -0.24920309, -0.36141115, -0.31558242, 0.026715387, -0.004009599, 0.1459217, 0
577, 1816845914, 0.84124357, -0.24921243, -0.36139482, -0.31558865, 0.007434935, 0.0037648522, 0.15838718, 0
578, 1816862581, 0.84125286, -0.24922517, -0.36136904, -0.31558332, 0.0057702106, -0.0032988277, 0.15512943, 0
579, 1816879248, 0.84129447, -0.2491969, -0.36135533, -0.31551042, -0.0043419627, 0.0087065, 0.15642166, 0
580, 1816895915, 0.8413189, -0.24917819, -0.36133364, -0.31548494, -0.016876346, -7.664259E-4, 0.14316273, 0
581, 1816912582, 0.84128714, -0.24921934, -0.36128858, -0.31558874, -0.015689492, 0.008966893, 0.14621067, 0
582, 1816929249, 0.84126776, -0.24924855, -0.3612789, -0.3156286, -0.011062997, 0.0181421, 0.13982487, 0
583, 1816945916, 0.84125596, -0.24924155, -0.36130607, -0.3156341, 0.024802785, -0.009074849, 0.13638973, 0
584, 1816962583, 0.84127265, -0.24922545, -0.36129543, -0.3156149, 0.038831353, 0.0073061916, 0.15957451, 0
585, 1816979250, 0.8412613, -0.24925753, -0.36124602, -0.3156764, 0.0121660335, -5.051393E-4, 0.14358425, 0
586, 1816995917, 0.841272, -0.2492523, -0.36122376, -0.31567767, -0.0059552793, 0.01482092, 0.14334679, 0
587, 1817012584, 0.84127074, -0.2492525, -0.361211, -0.31569508, -0.005959526, 0.020199982, 0.16252041, 0
588, 1817029251, 0.8412367, -0.24928714, -0.36117736, -0.3157969, -0.0054470105, 0.0072809346, 0.1362238, 0
589, 1817045918, 0.84122324, -0.24929556, -0.36117306, -0.31583112, -0.003064139, 0.002424445, 0.14000702, 0
590, 1817062585, 0.8412161, -0.24930826, -0.36116493, -0.31584945, 9.2087335E-5, -0.008914144, 0.13770866, 0
591, 1817079252, 0.8412111, -0.24931882, -0.36115208, -0.31586897, -0.0012029468, 0.007857151, 0.15507317, 0
592, 1817095919, 0.84126633, -0.24925956, -0.36117372, -0.3157441, 0.0061501823, -0.006377272, 0.14434147, 0
593, 1817112586, 0.841251, -0.2492713, -0.36115897, -0.3157925, 0.0017221674, 0.010803722, 0.14493752, 0
594, 1817129253, 0.841199, -0.24932203, -0.36114454, -0.3159072, 0.003798379, 0.010900503, 0.15482998, 0
595, 1817145920, 0.8412054, -0.24931054, -0.3611723, -0.3158674, 0.0038037435, 3.413043E-4, 0.14537334, 0
596, 1817162587, 0.84129494, -0.24920909, -0.36125258, -0.31561735, 1.1846187E-5, -0.0020905167, 0.1567173, 0
597, 1817179254, 0.84128493, -0.24920447, -0.36126268, -0.31563616, -0.010903409, 0.004742498, 0.13618183, 0
598, 1817195921, 0.8412618, -0.24922216, -0.36124325, -0.31570607, -1.6539958E-5, -0.0018430878, 0.14061737, 0
599, 1817212588, 0.8413168, -0.24915491, -0.3612924, -0.31555623, 0.009180571, 0.0039072298, 0.15555859, 0
600, 1817229255, 0.8413053, -0.24917944, -0.3612591, -0.31560543, 0.011217222, -0.004217019, 0.14460278, 0
601, 1817245922, 0.84133387, -0.24914785, -0.36128268, -0.31552726, 0.009561437, 0.021707801, 0.15212536, 0
602, 1817262589, 0.84138685, -0.2490893, -0.36132208, -0.3153871, 0.0020478256, 0.0037856388, 0.15259552, 0
603, 1817279256, 0.84140927, -0.24905325, -0.36135498, -0.31531835, -0.021113034, 0.012139212, 0.14854145, 0
604, 1817295923, 0.8413979, -0.24905315, -0.36137354, -0.3153278, -0.006366096, 0.011800366, 0.14195824, 0
605, 1817312590, 0.841411, -0.24901916, -0.3614139, -0.3152729, 0.015827175, 6.852907E-4, 0.17003536, 0
606, 1817329257, 0.8414111, -0.24900423, -0.361438, -0.31525686, 0.010024332, 0.01701269, 0.14946938, 0
607, 1817345924, 0.84140867, -0.24900645, -0.36143348, -0.31526688, 0.02177195, -0.003996859, 0.15972137, 0
608, 1817362591, 0.8414447, -0.24899529, -0.36141297, -0.31520322, 0.007854246, -0.013859815, 0.14880562, 0
609, 1817379258, 0.8415078, -0.24893765, -0.36141145, -0.31508186, -0.0041235904, -0.0075015416, 0.14574051, 0
610, 1817395925, 0.84154075, -0.24889617, -0.36140707, -0.31503165, -0.015723465, 0.024954328, 0.13918781, 0
611, 1817412592, 0.8414845, -0.24894126, -0.36140463, -0.315149, -0.00944387, 0.025850838, 0.14117527, 0
612, 1817429259, 0.8414528, -0.24895734, -0.3614111, -0.31521344, 0.023201985, -0.021359792, 0.13317871, 0
613, 1817445926, 0.8414399, -0.24896628, -0.36141407, -0.31523737, 0.0072612655, -0.004437403, 0.16806316, 0
614, 1817462593, 0.84146726, -0.24892013, -0.36144736, -0.31516245, -0.014289184, 0.009901624, 0.14321136, 0
615, 1817479260, 0.84150493, -0.24885769, -0.36150128, -0.31504944, 0.002949477, 0.009122904, 0.13602448, 0
616, 1817495927, 0.84151, -0.24884152, -0.36151904, -0.31502828, 0.019496141, -0.0047780364, 0.14122486, 0
617, 1817512594, 0.841491, -0.24884701, -0.36152396, -0.3150691, 0.020621529, 0.010940065, 0.15046406, 0
618, 1817529261, 0.8415734, -0.24874815, -0.3615972, -0.31484297, 0.015281804, 0.0038618569, 0.15071106, 0
619, 1817545928, 0.8416263, -0.24869643, -0.36160496, -0.31473377, 0.0031893065, 0.0116691645, 0.1419239, 0
620, 1817562595, 0.84163463, -0.24870466, -0.3615954, -0.31471586, -0.011607251, 0.019941602, 0.14429092, 0
621, 1817579262, 0.8416371, -0.24872205, -0.3615703, -0.3147246, -0.0028178277, 0.0085457945, 0.1362524, 0
622, 1817595929, 0.84163743, -0.24874374, -0.3615525, -0.3147268, 0.007168284, 0.019950543, 0.15883541, 0
623, 1817612596, 0.8416688, -0.24873543, -0.36153102, -0.3146742, 0.028753154, -0.016295882, 0.16699123, 0
624, 1817629263, 0.8417184, -0.2487104, -0.36146373, -0.31463864, 0.017406741, -0.0028372735, 0.14612293, 0
625, 1817645930, 0.8417536, -0.24870317, -0.36139783, -0.3146258, -0.016991679, 0.018049119, 0.13896465, 0
626, 1817662597, 0.84177977, -0.24867648, -0.361385, -0.31459156, -0.017223014, 0.007814683, 0.14062023, 0
627, 1817679264, 0.84176177, -0.24869317, -0.36138242, -0.3146294, -0.015299015, 0.012224147, 0.13448048, 0
628, 1817695931, 0.8417735, -0.24869104, -0.36139938, -0.31458005, 0.020943612, -0.01444676, 0.17138577, 0
629, 1817712598, 0.8417947, -0.24868697, -0.3613721, -0.31455752, 0.023692597, 0.00163835, 0.14781284, 0
630, 1817729265, 0.8417896, -0.24869783, -0.36134806, -0.31459072, -0.005475844, 0.012256333, 0.14887047, 0
631, 1817745932, 0.8417783, -0.24872221, -0.36133546, -0.3146162, 0.008417498, -0.019534362, 0.1317234, 0
632, 1817762599, 0.8417454, -0.24876124, -0.36131027, -0.3147022, 0.0033768336, -5.645937E-4, 0.17158222, 0
633, 1817779266, 0.84179527, -0.24870777, -0.36131245, -0.31460842, 0.03610338, -0.015083772, 0.15288162, 0
634, 1817795933, 0.84183323, -0.24868442, -0.3612688, -0.31457567, 0.0031104062, -0.0056734295, 0.1418972, 0
635, 1817812600, 0.8417945, -0.24871922, -0.3612693, -0.3146514, -0.034541693, 0.03174264, 0.12035656, 0
636, 1817829267, 0.84181887, -0.24866636, -0.36134645, -0.31453884, -0.0059651136, 0.01408601, 0.13839817, 0
637, 1817845934, 0.84180266, -0.24866225, -0.36137065, -0.31455782, 0.0086403405, 0.008282943, 0.1559782, 0
638, 1817862601, 0.8417996, -0.24865907, -0.36136344, -0.3145768, 0.013249401, 0.0052103107, 0.14913177, 0
639, 1817879268, 0.84180075, -0.24865805, -0.3613603, -0.31457826, 0.027439345, 0.007239585, 0.14365196, 0
640, 1817895935, 0.84185344, -0.2486155, -0.3613604, -0.31447077, 0.02720622, 0.003624486, 0.15169811, 0
641, 1817912602, 0.84183866, -0.24865068, -0.36130473, -0.31454623, -0.0046946662, 0.002390024, 0.14440632, 0
642, 1817929269, 0.8418411, -0.24862786, -0.3613571, -0.3144977, -0.043062676, 0.031009294, 0.14371681, 0
643, 1817945936, 0.8418551, -0.2485645, -0.36145765, -0.31439477, -0.010588926, 0.010010251, 0.1441021, 0
644, 1817962603, 0.8418722, -0.24850976, -0.361519, -0.31432176, 0.019617286, 0.015530351, 0.1545105, 0
645, 1817979270, 0.8418849, -0.24847265, -0.3615336, -0.31430042, 0.015413007, -2.7290932E-4, 0.15623093, 0
646, 1817995937, 0.8419055, -0.24846093, -0.36150786, -0.31428424, 0.034635566, -0.0042319945, 0.15334797, 0
647, 1818012604, 0.8419791, -0.24839327, -0.36151323, -0.31413433, 0.027539032, 0.0019222114, 0.15124702, 0
648, 1818029271, 0.842002, -0.24841473, -0.36145592, -0.31412196, 0.011859821, 0.0072308676, 0.14241028, 0
649, 1818045938, 0.842014, -0.24841638, -0.36143768, -0.3141092, -0.018816438, 0.0029047744, 0.13057995, 0
650, 1818062605, 0.8419869, -0.2484412, -0.36144173, -0.31415752, -0.007851563, 0.0021162208, 0.1318016, 0
651, 1818079272, 0.8419969, -0.24841644, -0.36145774, -0.31413192, 0.004174775, 0.0014874787, 0.15627384, 0
652, 1818095939, 0.84193355, -0.2484821, -0.3614119, -0.31430244, -9.052275E-4, 0.016721005, 0.1600771, 0
653, 1818112606, 0.84191567, -0.24850363, -0.36137056, -0.3143808, 0.027112344, 0.0051318575, 0.13940239, 0
654, 1818129273, 0.84198076, -0.24843958, -0.3613627, -0.31426623, 0.022393987, -0.0011522092, 0.17051029, 0
655, 1818145940, 0.8419754, -0.24847989, -0.36129615, -0.3143253, 0.01682382, 0.010977169, 0.14066887, 0
656, 1818162607, 0.84202266, -0.2484573, -0.36125755, -0.31426093, 0.0030831378, -4.7451802E-4, 0.1196394, 0
657, 1818179274, 0.8420359, -0.24843489, -0.36129737, -0.31419733, -0.0313839, 0.02248451, 0.12915611, 0
658, 1818195941, 0.8420047, -0.24843565, -0.3613425, -0.31422842, -0.0094955005, 0.010851554, 0.13630581, 0
659, 1818212608, 0.8419983, -0.24841538, -0.3613829, -0.31421533, 0.022431985, -0.006044014, 0.16054153, 0
660, 1818229275, 0.841934, -0.24848628, -0.3613227, -0.31440055, 0.016039066, -0.00956926, 0.15416431, 0
661, 1818245942, 0.8419261, -0.24852243, -0.36127406, -0.31444898, 0.0117637105, -0.003095431, 0.1584053, 0
662, 1818262609, 0.8419345, -0.24853888, -0.36124957, -0.31444162, 0.004238029, 0.007153532, 0.13215637, 0
663, 1818279276, 0.84192747, -0.24856749, -0.3612238, -0.31446755, 0.0049291314, 0.0040589953, 0.14948082, 0
664, 1818295943, 0.8419079, -0.24858691, -0.36118072, -0.314554, 0.012653963, -0.0011419277, 0.13090134, 0
665, 1818312610, 0.8419127, -0.24854654, -0.3612273, -0.31451955, -0.032269683, 0.035284426, 0.13981819, 0
666, 1818329277, 0.8419358, -0.24849428, -0.3612798, -0.3144385, 0.0042742384, 0.008933366, 0.15767479, 0
667, 1818345944, 0.8418888, -0.248536, -0.3612687, -0.31454423, 0.0128084095, -0.0022881022, 0.16243553, 0
668, 1818362611, 0.8418578, -0.2485786, -0.3612263, -0.31464225, 0.03384478, -0.0012022762, 0.14542389, 0
669, 1818379278, 0.8418666, -0.2485912, -0.36117777, -0.3146644, 0.046062667, -0.011280699, 0.13824081, 0
670, 1818395945, 0.8419156, -0.2485766, -0.36112934, -0.31460017, 0.04844509, -0.0017708931, 0.15747452, 0
671, 1818412612, 0.84192747, -0.2486111, -0.3610373, -0.3146471, 0.012634964, 0.003440535, 0.13571835, 0
672, 1818429279, 0.8419246, -0.24864812, -0.36095524, -0.3147195, -0.02801869, 0.013663794, 0.14517689, 0
673, 1818445946, 0.8418923, -0.24867891, -0.3609293, -0.3148116, -0.062098827, 0.013220568, 0.11122322, 0
674, 1818462613, 0.8419192, -0.24862385, -0.36098826, -0.3147155, -0.027992316, 0.0028162634, 0.158288, 0
675, 1818479280, 0.8419606, -0.24858186, -0.36104083, -0.31457746, 0.00858245, 0.003327214, 0.15852451, 0
676, 1818495947, 0.84197736, -0.2485744, -0.36103523, -0.31454498, 0.02472545, -0.008476505, 0.1629076, 0
677, 1818512614, 0.8419882, -0.24857989, -0.36100549, -0.31454575, 0.026571667, 0.0020813528, 0.15546227, 0
678, 1818529281, 0.84200263, -0.248595, -0.3609376, -0.31457314, 0.03617557, 0.0045527355, 0.14160442, 0
679, 1818545948, 0.8420358, -0.24859168, -0.36087525, -0.31455824, 0.013299915, -0.00450021, 0.14990044, 0
680, 1818562615, 0.84208876, -0.24853018, -0.3608891, -0.31444925, -0.025225002, 0.033210225, 0.119644165, 0
681, 1818579282, 0.84205943, -0.24852997, -0.36091936, -0.31449315, -0.032707546, 0.04155195, 0.14073086, 0
682, 1818595949, 0.84203523, -0.24852173, -0.3609931, -0.31447974, -0.009738012, 0.021020724, 0.16969109, 0
683, 1818612616, 0.8420317, -0.24850838, -0.3610744, -0.31440642, 0.0052970336, -0.0046155425, 0.1538248, 0
684, 1818629283, 0.8420165, -0.24851166, -0.36110732, -0.31440705, 0.005448575, -0.0012002646, 0.14340115, 0
685, 1818645950, 0.84204704, -0.24846683, -0.3611789, -0.31427854, 0.018402716, -0.010059424, 0.15617847, 0
686, 1818662617, 0.8420605, -0.24847098, -0.36113107, -0.3142938, 0.06705925, -0.031304553, 0.17342281, 0
687, 1818679284, 0.8421187, -0.24842718, -0.36107457, -0.3142377, 0.016423285, 0.003862304, 0.14422703, 0
688, 1818695951, 0.8421348, -0.24839723, -0.36108992, -0.3142007, -0.047264945, 0.042897053, 0.1357336, 0
689, 1818712618, 0.8421138, -0.2483694, -0.36118004, -0.3141748, -0.036836725, 0.037596, 0.13052273, 0
690, 1818729285, 0.84208804, -0.24838075, -0.36124635, -0.31415895, 0.006170969, 7.4742734E-4, 0.14620304, 0
691, 1818745952, 0.8420948, -0.24835952, -0.36129484, -0.3141018, 0.02254374, -0.0121090375, 0.16936302, 0
692, 1818762619, 0.8420907, -0.24837027, -0.3612886, -0.31411138, 0.04025334, -0.0117697455, 0.147192, 0
693, 1818779286, 0.842103, -0.24837887, -0.36126554, -0.3140984, 0.027339434, -0.010917267, 0.15570068, 0
694, 1818795953, 0.84214354, -0.24834137, -0.36126935, -0.31401494, 1.604823E-4, -0.015518728, 0.13174057, 0
695, 1818812620, 0.8421525, -0.24832566, -0.3612798, -0.31399146, -0.016181445, 0.016743133, 0.14458084, 0
696, 1818829287, 0.8421988, -0.24825649, -0.3613495, -0.31384176, -0.007485002, 0.011590488, 0.13892841, 0
697, 1818845954, 0.8421957, -0.24824016, -0.36137867, -0.31382945, -0.010902068, -0.006319829, 0.14817429, 0
698, 1818862621, 0.84216535, -0.24824971, -0.36141443, -0.31386194, -0.006425774, 0.0115887, 0.14823627, 0
699, 1818879288, 0.842127, -0.24828336, -0.36141968, -0.31393215, 0.018185908, 0.024878332, 0.1560173, 0
700, 1818895955, 0.8421278, -0.24829863, -0.3614085, -0.31393072, 0.041442208, -0.011843728, 0.16692924, 0
701, 1818912622, 0.842158, -0.24828172, -0.36140186, -0.31387073, 0.009429788, 8.6678326E-4, 0.14503193, 0
702, 1818929289, 0.84216267, -0.24828796, -0.3613836, -0.31387436, -6.211425E-4, 0.0048678885, 0.14932442, 0
703, 1818945956, 0.84216505, -0.2482718, -0.3614125, -0.31384736, -0.013321595, 0.024482045, 0.14123058, 0
704, 1818962623, 0.8421633, -0.24824068, -0.36146092, -0.3138208, -0.010319593, 0.01391994, 0.13707066, 0
705, 1818979290, 0.84215224, -0.24822952, -0.36147207, -0.31384674, 0.012464871, 0.0057894327, 0.15657902, 0
706, 1818995957, 0.8421534, -0.24822502, -0.36147296, -0.3138463, 0.021220097, 0.0027174705, 0.1605215, 0
707, 1819012624, 0.84216934, -0.24822284, -0.36146152, -0.31381837, 0.025973994, 0.0095089115, 0.1692028, 0
708, 1819029291, 0.84216195, -0.24824409, -0.36141276, -0.31387752, -0.0032373616, -0.008408558, 0.14812279, 0
709, 1819045958, 0.8421549, -0.24826038, -0.3613672, -0.31393608, 0.01781957, -0.0012315564, 0.14628506, 0
710, 1819062625, 0.84214824, -0.2483011, -0.3612717, -0.3140313, 0.031520467, -0.015653953, 0.1476326, 0
711, 1819079292, 0.8421663, -0.24830072, -0.36120582, -0.314059, -0.02874086, 0.010609266, 0.13582325, 0
712, 1819095959, 0.8421362, -0.24831796, -0.3612044, -0.31412768, -0.03811656, 0.02135711, 0.13349438, 0
713, 1819112626, 0.84214914, -0.24827763, -0.3612763, -0.31404224, -0.015712515, -0.008853348, 0.14357662, 0
714, 1819129293, 0.8421277, -0.24827607, -0.36133838, -0.3140297, 0.0024787586, 0.0025558707, 0.14293194, 0
715, 1819145960, 0.84211737, -0.24828555, -0.3613651, -0.3140191, 0.04794867, -0.015565665, 0.1628561, 0
716, 1819162627, 0.8421399, -0.24828489, -0.36134252, -0.31398508, 0.028910954, -0.008872794, 0.15376663, 0
717, 1819179294, 0.8421983, -0.24824007, -0.3613568, -0.31384742, 0.03260808, -0.015763251, 0.1581049, 0
718, 1819195961, 0.8422115, -0.24824467, -0.36130214, -0.31387153, 0.014937818, 0.0064387377, 0.14500046, 0
719, 1819212628, 0.84220827, -0.24824664, -0.36129922, -0.31388146, -0.046207502, 0.01682628, 0.12736702, 0
720, 1819229295, 0.84222215, -0.24820687, -0.36135793, -0.31380826, -0.014931783, 0.022350177, 0.14313221, 0
721, 1819245962, 0.84224373, -0.24817005, -0.36141485, -0.3137141, 0.021703778, -0.0027449627, 0.15307903, 0
722, 1819262629, 0.8422665, -0.24815476, -0.3614345, -0.31364253, 0.040813465, -0.011071938, 0.16469288, 0
723, 1819279296, 0.8422784, -0.24815643, -0.36140457, -0.31364375, 0.0307451, -0.0064651123, 0.1554699, 0
724, 1819295963, 0.8422721, -0.24818115, -0.3613639, -0.31368786, 0.018920818, 0.005725955, 0.1573267, 0
725, 1819312630, 0.84227836, -0.2482029, -0.36130965, -0.3137163, 0.01465418, -0.012853783, 0.14730072, 0
726, 1819329297, 0.8423067, -0.24820246, -0.36126795, -0.3136886, 0.0043097767, 0.012744709, 0.1453371, 0
727, 1819345964, 0.8423094, -0.2482103, -0.3612503, -0.31369543, -0.032462798, 0.020692829, 0.12726688, 0
728, 1819362631, 0.84228057, -0.2482047, -0.36131084, -0.31370777, -0.020586437, 0.024552675, 0.12130737, 0
729, 1819379298, 0.84225947, -0.24820368, -0.36134937, -0.31372058, 0.0034756265, 0.0057393657, 0.15302467, 0
730, 1819395965, 0.84227365, -0.2481946, -0.36136413, -0.31367275, 0.0096289385, -0.020391757, 0.15200996, 0
731, 1819412632, 0.8423241, -0.24814959, -0.3613756, -0.31355974, 0.024733273, -0.01917674, 0.14270496, 0
732, 1819429299, 0.84232914, -0.24817024, -0.3613367, -0.31357467, 0.009056969, -0.0030500577, 0.1610403, 0
733, 1819445966, 0.8423344, -0.24817176, -0.36132067, -0.31357768, 0.0041034743, -0.00681871, 0.13424206, 0
734, 1819462633, 0.8423317, -0.24816795, -0.36134526, -0.31355956, 0.018551128, -0.0076016756, 0.13523006, 0
735, 1819479300, 0.84233224, -0.24814573, -0.36138877, -0.31352547, -1.2561429E-4, 0.02118277, 0.13897133, 0
736, 1819495967, 0.842277, -0.24819133, -0.36138958, -0.31363696, 0.0020453671, 0.0071524144, 0.15804958, 0
737, 1819512634, 0.8422795, -0.24818164, -0.3613988, -0.31362745, 0.015290968, 0.0054163896, 0.15320396, 0
738, 1819529301, 0.8422812, -0.24817428, -0.36140725, -0.31361884, 0.01576951, 0.007672529, 0.1558342, 0
739, 1819545968, 0.84230745, -0.24814768, -0.36141893, -0.3135557, 2.1010218E-4, 5.896272E-4, 0.15646744, 0
740, 1819562635, 0.84231335, -0.24814273, -0.36141938, -0.31354332, -0.0080225505, -0.007099442, 0.15020752, 0
741, 1819579302, 0.842294, -0.24817207, -0.3613773, -0.31362104, 0.021347946, -0.009979183, 0.16680145, 0
742, 1819595969, 0.8422811, -0.24818775, -0.36132747, -0.31370014, 0.012305059, -0.019169366, 0.16030788, 0
743, 1819612636, 0.8422707, -0.24818997, -0.36130345, -0.3137541, -0.019994799, 0.01343894, 0.14045715, 0
744, 1819629303, 0.84223264, -0.24820022, -0.36133656, -0.3138098, -0.0076861633, 0.019581523, 0.13624763, 0
745, 1819645970, 0.84223443, -0.24819012, -0.36136398, -0.31378186, 0.01362915, 0.0023225232, 0.17671013, 0
746, 1819662637, 0.84222937, -0.24819499, -0.3613473, -0.31381088, 0.022858223, 0.0065668104, 0.1499157, 0
747, 1819679304, 0.8422516, -0.24819382, -0.3613211, -0.31378233, 0.0096850395, -0.005775351, 0.15094852, 0
748, 1819695971, 0.84227604, -0.24818426, -0.36130297, -0.31374514, 0.008088711, -0.0051631494, 0.13592339, 0
749, 1819712638, 0.8422944, -0.2482063, -0.3612565, -0.3137317, 0.023648342, -0.018389529, 0.15074348, 0
750, 1819729305, 0.84231275, -0.24820642, -0.36119717, -0.3137508, 0.0016399146, -0.0017045098, 0.13973522, 0
751, 1819745972, 0.8422678, -0.24823302, -0.3611875, -0.31386137, -0.029668886, 0.031974647, 0.12613678, 0
752, 1819762639, 0.8422689, -0.24820493, -0.3612303, -0.31383148, 0.0046077194, 0.0066182185, 0.14869499, 0
753, 1819779306, 0.84225434, -0.24821036, -0.36126104, -0.31383067, 0.010184815, 0.0066559925, 0.1673088, 0
754, 1819795973, 0.8422446, -0.24821308, -0.36126187, -0.3138537, 0.015923062, -0.0071649314, 0.14921379, 0
755, 1819812640, 0.84221953, -0.24824326, -0.36124983, -0.3139111, 0.02261236, 0.011273546, 0.14374542, 0
756, 1819829307, 0.8422228, -0.24824955, -0.36122942, -0.31392092, 0.040514853, -0.0051955585, 0.15212727, 0
757, 1819845974, 0.84224784, -0.2482346, -0.36121303, -0.31388438, 0.009793667, 0.002533296, 0.12666321, 0
758, 1819862641, 0.8422293, -0.24823515, -0.36123317, -0.31391034, -0.0116821285, -0.0039642258, 0.1350975, 0
759, 1819879308, 0.84220994, -0.24822645, -0.36125502, -0.31394404, -0.010805957, 0.0022764795, 0.13614178, 0
760, 1819895975, 0.8421831, -0.24822953, -0.36127737, -0.3139879, -0.0044168397, -0.006530825, 0.13734055, 0
761, 1819912642, 0.84219646, -0.24819872, -0.36129907, -0.3139516, 0.032526948, 0.0138224885, 0.15669727, 0
762, 1819929309, 0.84223056, -0.24817735, -0.36129642, -0.3138799, 0.045720246, -0.001604823, 0.15742016, 0
763, 1819945976, 0.8422572, -0.24816957, -0.36125717, -0.31385982, 0.0029854625, -0.003961767, 0.14028454, 0
764, 1819962643, 0.8422765, -0.24816963, -0.36121926, -0.31385145, -0.0038202833, 0.001812243, 0.14286804, 0
765, 1819979310, 0.8423202, -0.24814667, -0.36117715, -0.31380114, 0.014573045, -0.028220747, 0.15096188, 0
766, 1819995977, 0.8423193, -0.24815927, -0.36114183, -0.31383383, -0.007157779, -0.0049722693, 0.13748646, 0
767, 1820012644, 0.84226644, -0.24818714, -0.3611625, -0.3139301, -0.03513378, 0.013052486, 0.12715721, 0
768, 1820029311, 0.84224576, -0.24819784, -0.36118165, -0.31395507, 0.008854913, -0.008237123, 0.14472485, 0
769, 1820045978, 0.84224534, -0.24821052, -0.3611818, -0.31394607, 0.018670484, -0.0026184542, 0.17427254, 0
770, 1820062645, 0.8422574, -0.24822648, -0.36113742, -0.31395227, 0.02350507, -0.0039698137, 0.14902306, 0
771, 1820079312, 0.8422808, -0.24824, -0.3610853, -0.31393865, 0.033536553, -0.00949483, 0.14531517, 0
772, 1820095979, 0.8423066, -0.24826135, -0.3610111, -0.31393784, 0.0058774967, 0.007210528, 0.14553738, 0
773, 1820112646, 0.84235096, -0.24824874, -0.36094907, -0.31390026, -0.003902089, 2.688861E-4, 0.14735222, 0
774, 1820129313, 0.8423373, -0.2482452, -0.3609621, -0.31392485, -0.042247973, 0.03101667, 0.1311264, 0
775, 1820145980, 0.8423274, -0.24823819, -0.36098462, -0.3139305, -0.008933143, 0.0026432641, 0.13693333, 0
776, 1820162647, 0.8423248, -0.24823166, -0.3609931, -0.31393316, 0.003744289, 0.010520978, 0.1549244, 0
777, 1820179314, 0.84233695, -0.24820785, -0.36099026, -0.31392267, 0.024263896, -0.0056325267, 0.16616058, 0
778, 1820195981, 0.84234434, -0.24821287, -0.3609778, -0.3139132, 0.0100381905, 0.0133066205, 0.14155006, 0
779, 1820212648, 0.84235626, -0.24821807, -0.36095887, -0.31389883, 0.015263476, -0.011430453, 0.14808846, 0
780, 1820229315, 0.8423716, -0.24822564, -0.36090654, -0.31391183, 0.040321067, -0.028516453, 0.15072536, 0
781, 1820245982, 0.8424071, -0.2482059, -0.3608334, -0.31391644, 0.008370337, -0.014112384, 0.16981697, 0
782, 1820262649, 0.8424592, -0.24816129, -0.36077777, -0.31387573, -0.00203665, 0.02347847, 0.13129139, 0
783, 1820279316, 0.84244525, -0.2481532, -0.3607716, -0.3139266, -0.028976666, 0.02466309, 0.13764858, 0
784, 1820295983, 0.84242725, -0.2481221, -0.3608383, -0.31392273, -0.010010474, 0.01880012, 0.14583111, 0
785, 1820312650, 0.8423957, -0.24813992, -0.3608579, -0.31397066, 0.03249588, -0.0033672226, 0.1579113, 0
786, 1820329317, 0.8424039, -0.24813998, -0.36084586, -0.3139629, 0.024256296, -0.004419522, 0.16118717, 0
787, 1820345984, 0.84242123, -0.24813917, -0.36082378, -0.313942, 0.004126943, -0.0025127328, 0.14748955, 0
788, 1820362651, 0.8424536, -0.2481352, -0.36078176, -0.3139066, 0.01585735, -0.01907415, 0.1468029, 0
789, 1820379318, 0.84244865, -0.24816504, -0.36072177, -0.31396508, -0.002631865, -0.0041975733, 0.1381464, 0
790, 1820395985, 0.8424382, -0.24815716, -0.36073834, -0.3139806, -0.039128177, 0.025004841, 0.12491512, 0
791, 1820412652, 0.842347, -0.2482027, -0.3608088, -0.3141085, -0.034920547, 0.0143323215, 0.13770199, 0
792, 1820429319, 0.84232455, -0.24817172, -0.36090824, -0.31407905, 0.017445857, 0.008443425, 0.16315937, 0
793, 1820445986, 0.84231484, -0.2481615, -0.36094043, -0.31407613, 0.045215555, -0.0074472283, 0.16032314, 0
794, 1820462653, 0.842359, -0.24812186, -0.3609495, -0.31397852, 0.035636235, -0.016712734, 0.15981197, 0
795, 1820479320, 0.842385, -0.24811174, -0.36091825, -0.31395254, 0.020849513, 0.012623117, 0.13657188, 0
796, 1820495987, 0.8423937, -0.24810952, -0.36089158, -0.3139617, 0.0036595776, -0.0027559148, 0.14851284, 0
797, 1820512654, 0.8424014, -0.24809045, -0.36088216, -0.3139671, -6.1309605E-4, -0.009172301, 0.15268993, 0
798, 1820529321, 0.8423843, -0.24807799, -0.36091974, -0.31397933, -0.04405977, 0.039564252, 0.144104, 0
799, 1820545988, 0.84234506, -0.24805799, -0.36100504, -0.3140025, -0.031910498, 0.009326078, 0.129323, 0
800, 1820562655, 0.84232473, -0.24804738, -0.36104113, -0.3140236, 0.0107883, -0.009990359, 0.15777206, 0
801, 1820579322, 0.8423218, -0.24804412, -0.3610628, -0.3140092, 0.040275022, -0.0054365057, 0.16030598, 0
802, 1820595989, 0.84234065, -0.24805513, -0.3610296, -0.31398818, 0.0515669, -0.0073249666, 0.14348888, 0
803, 1820612656, 0.842384, -0.24806908, -0.36096624, -0.31393352, 0.028781317, -0.0020990102, 0.14592648, 0
804, 1820629323, 0.84244025, -0.24808012, -0.36088365, -0.31386912, 0.027887264, 0.0016300799, 0.14606857, 0
805, 1820645990, 0.8424676, -0.24808592, -0.3608188, -0.31386572, -0.024466846, 0.010694425, 0.11815548, 0
806, 1820662657, 0.8424438, -0.24811116, -0.36082166, -0.31390634, -0.043816138, 0.019353988, 0.14023018, 0
807, 1820679324, 0.8424165, -0.24811162, -0.36085272, -0.3139435, -0.009811772, 0.014166698, 0.1484108, 0
808, 1820695991, 0.8424093, -0.24811481, -0.36088216, -0.31392628, 0.023507752, 0.0015780014, 0.16350555, 0
809, 1820712658, 0.8424388, -0.24810517, -0.36086524, -0.31387398, 0.023407394, -0.01652096, 0.16439247, 0
810, 1820729325, 0.84247196, -0.24809144, -0.36084262, -0.3138222, -0.010168945, -0.0026253832, 0.13975716, 0
811, 1820745992, 0.8424774, -0.24808803, -0.36083874, -0.31381452, -0.0036446021, 0.021403378, 0.15086651, 0
812, 1820762659, 0.8424768, -0.24807477, -0.36086836, -0.31379262, 0.009310879, 0.002072859, 0.15602493, 0
813, 1820779326, 0.8424496, -0.24809133, -0.360879, -0.31384024, 0.008017857, 0.004909239, 0.14706516, 0
814, 1820795993, 0.84244674, -0.24807048, -0.36091042, -0.31382856, 0.0037811687, 3.294581E-4, 0.13846684, 0
815, 1820812660, 0.84243625, -0.24804969, -0.36093563, -0.31384364, -0.0037959206, 0.008839714, 0.15139866, 0
816, 1820829327, 0.84242344, -0.2480471, -0.3609605, -0.31385204, 0.03553454, -0.004414381, 0.14479351, 0
817, 1820845994, 0.8424351, -0.24804208, -0.3609452, -0.3138418, 0.038208645, -0.0085013155, 0.15652752, 0
818, 1820862661, 0.8424468, -0.2480573, -0.36089444, -0.31385705, 2.6821555E-4, 0.003365658, 0.13636303, 0
819, 1820879328, 0.84245247, -0.24808, -0.360819, -0.3139108, 2.536872E-4, -0.0075475853, 0.13943386, 0
820, 1820895995, 0.8424559, -0.2481089, -0.36074564, -0.31396306, -0.009582224, 0.002542907, 0.14195442, 0
821, 1820912662, 0.8424622, -0.24809536, -0.36073926, -0.3139639, -0.02034415, 0.019354211, 0.12510014, 0
822, 1820929329, 0.84242785, -0.24808298, -0.36080593, -0.31398907, -0.010896703, 0.021455903, 0.13143063, 0
823, 1820945996, 0.8424143, -0.24806152, -0.36086246, -0.31397775, 0.015974248, -0.002756809, 0.15545273, 0
824, 1820962663, 0.84242976, -0.24805796, -0.36085543, -0.3139473, 0.013933574, -0.007428677, 0.17020226, 0
825, 1820979330, 0.842451, -0.24804305, -0.36084414, -0.31391504, -0.008449684, -0.00795058, 0.1606245, 0
826, 1820995997, 0.84247166, -0.24803323, -0.36083782, -0.3138746, 0.01497358, -0.0057449536, 0.13990879, 0
827, 1821012664, 0.8424993, -0.24803199, -0.36080083, -0.3138437, 0.030608535, -0.014632946, 0.14357948, 0
828, 1821029331, 0.8425391, -0.24800211, -0.3607991, -0.31376272, 0.015824717, 0.0016242686, 0.13287258, 0
829, 1821045998, 0.8425181, -0.24799585, -0.3608471, -0.31376874, -0.04137247, 0.036007714, 0.11703491, 0
830, 1821062665, 0.84248346, -0.24799232, -0.36092535, -0.31377432, -0.0114101125, 0.005608164, 0.1432085, 0
831, 1821079332, 0.842483, -0.2479708, -0.36096767, -0.3137439, 0.013215204, -0.0077257254, 0.17439651, 0
832, 1821095999, 0.8424956, -0.24795173, -0.36098692, -0.31370297, 0.010941629, 0.00973913, 0.1744461, 0
833, 1821112666, 0.8425188, -0.24793401, -0.36097267, -0.31367123, -0.0029662405, 0.004193103, 0.13625431, 0
834, 1821129333, 0.8425308, -0.24792443, -0.3609645, -0.31365588, -0.015544656, 0.008443649, 0.15324783, 0
835, 1821146000, 0.8425103, -0.24794012, -0.36096594, -0.31369677, 0.006401635, 0.0022056259, 0.14850426, 0
836, 1821162667, 0.8425001, -0.24793582, -0.36099258, -0.31369686, 0.023159742, -0.0019369633, 0.15151024, 0
837, 1821179334, 0.84246147, -0.24796008, -0.36099386, -0.3137799, -0.0011171177, 0.011540645, 0.13514519, 0
838, 1821196001, 0.84245795, -0.24792856, -0.36104423, -0.31375626, -0.009705156, 0.0058926954, 0.14906597, 0
839, 1821212668, 0.842469, -0.2479008, -0.36108816, -0.31369808, 0.004757026, 0.016201336, 0.15727615, 0
840, 1821229335, 0.84247595, -0.2479079, -0.36109644, -0.3136641, 0.014891998, -0.003502448, 0.15638065, 0
841, 1821246002, 0.842471, -0.24792922, -0.3610677, -0.3136936, 0.023890182, -8.024115E-5, 0.16054726, 0
842, 1821262669, 0.84250236, -0.2479266, -0.36104053, -0.31364313, 0.017613268, -0.009500641, 0.16313934, 0
843, 1821279336, 0.8425593, -0.24789728, -0.36102444, -0.3135319, 0.010303277, -0.00808357, 0.14472485, 0
844, 1821296003, 0.84254867, -0.24789158, -0.36104795, -0.31353787, -0.017414564, 0.009887319, 0.1285696, 0
845, 1821312670, 0.84248155, -0.24792176, -0.36109084, -0.31364498, 0.0019391984, 0.016976703, 0.13302994, 0
846, 1821329337, 0.84246844, -0.24790213, -0.3611241, -0.31365758, 0.011251866, 0.006656216, 0.16208076, 0
847, 1821346004, 0.84246755, -0.24789138, -0.36113423, -0.31365672, 0.019163555, 0.0030129547, 0.16827965, 0
848, 1821362671, 0.84247375, -0.24790362, -0.36109772, -0.31367207, 0.014858024, 3.7170204E-4, 0.1358614, 0
849, 1821379338, 0.8424961, -0.24790677, -0.36107445, -0.31363666, 0.01055227, 0.0069881324, 0.14380169, 0
850, 1821396005, 0.84249777, -0.24793032, -0.3610525, -0.31363872, 0.0162105, -0.008458401, 0.15212727, 0
851, 1821412672, 0.8425267, -0.24792315, -0.3610178, -0.3136067, 0.030902678, -0.014151723, 0.14104652, 0
852, 1821429339, 0.8425097, -0.24795233, -0.36098966, -0.31366163, 0.0017185911, 0.0030686094, 0.14163113, 0
853, 1821446006, 0.84249043, -0.24796338, -0.36098558, -0.31370926, -0.026811497, 0.005624927, 0.14293861, 0
854, 1821462673, 0.8424884, -0.2479378, -0.361011, -0.31370556, 0.003063692, 0.008330551, 0.1457758, 0
855, 1821479340, 0.842488, -0.247923, -0.36102512, -0.31370184, 0.0073479884, 0.020959256, 0.16168594, 0
856, 1821496007, 0.84251636, -0.2479155, -0.36100212, -0.3136584, 0.025589105, -0.004294131, 0.15746689, 0
857, 1821512674, 0.84254724, -0.24791154, -0.36096781, -0.31361812, -0.00973086, -9.454598E-5, 0.13739109, 0
858, 1821529341, 0.84255534, -0.24792546, -0.36091512, -0.3136458, 0.017129138, -0.004067936, 0.1492567, 0
859, 1821546008, 0.8425516, -0.24792244, -0.36092067, -0.31365216, -0.008348209, 0.006878164, 0.13205814, 0
860, 1821562675, 0.8425394, -0.24791445, -0.36094075, -0.3136682, 0.016945187, -0.008864524, 0.13981915, 0
861, 1821579342, 0.84253246, -0.24789837, -0.36094844, -0.31369045, -0.0035583263, 0.005003561, 0.13726902, 0
862, 1821596009, 0.84254473, -0.2478706, -0.3609879, -0.31363407, 0.009482537, 0.009033946, 0.16204071, 0
863, 1821612676, 0.84254175, -0.24788824, -0.36096692, -0.31365222, 0.018948087, 0.00734173, 0.14986515, 0
864, 1821629343, 0.84254944, -0.24788268, -0.36095384, -0.31365094, 0.0015105006, 0.0096539715, 0.16927528, 0
865, 1821646010, 0.84255815, -0.24788572, -0.36092985, -0.3136525, -0.001043582, 8.1001094E-4, 0.14783859, 0
866, 1821662677, 0.8425783, -0.24788596, -0.3609216, -0.31360823, 0.011396255, 0.0064843344, 0.15165615, 0
867, 1821679344, 0.8425756, -0.24787453, -0.36095023, -0.31359142, -0.008706723, 0.012788517, 0.13221169, 0
868, 1821696011, 0.8425334, -0.24790843, -0.36095825, -0.31366867, -0.0039914944, 0.0066568865, 0.14963913, 0
869, 1821712678, 0.8424922, -0.24791268, -0.3610022, -0.3137253, -0.0045916266, -0.0016542193, 0.14608383, 0
870, 1821729345, 0.8424452, -0.24795315, -0.36100778, -0.31381342, 0.033634678, 4.899404E-4, 0.15698528, 0
871, 1821746012, 0.8424375, -0.24798098, -0.36096388, -0.3138623, 0.043742828, -0.0037022687, 0.15412045, 0
872, 1821762679, 0.8424518, -0.24799336, -0.36094007, -0.3138416, -0.0019443393, 9.351782E-4, 0.1363678, 0
873, 1821779346, 0.84246176, -0.24800573, -0.36090016, -0.31385097, 0.0062460694, -0.0058721323, 0.1455698, 0
874, 1821796013, 0.8424587, -0.24801704, -0.36088246, -0.31387058, 0.0011788073, -0.007640343, 0.13209248, 0
875, 1821812680, 0.84244716, -0.24801986, -0.36087564, -0.31390712, -0.0067623844, 0.0049749515, 0.14172935, 0
876, 1821829347, 0.8424365, -0.24800915, -0.36090466, -0.31391117, -0.006154429, 0.010416375, 0.1480875, 0
877, 1821846014, 0.8424304, -0.2480024, -0.3609127, -0.31392363, 0.0040373146, -0.0019776425, 0.15560055, 0
878, 1821862681, 0.84244365, -0.24798855, -0.3609178, -0.31389317, 0.0022735738, 5.00669E-5, 0.15307808, 0
879, 1821879348, 0.84245145, -0.24799488, -0.36090732, -0.31387928, 0.012958834, -0.0020558722, 0.1506319, 0
880, 1821896015, 0.8424704, -0.24799423, -0.36087322, -0.3138679, 0.012192409, -0.011208504, 0.15644264, 0
881, 1821912682, 0.84248555, -0.24799502, -0.36083505, -0.31387076, 0.035463907, 0.0022159074, 0.14583683, 0
882, 1821929349, 0.8425, -0.24797833, -0.36082277, -0.31385902, 0.0021405835, 0.01654957, 0.14648533, 0
883, 1821946016, 0.8424984, -0.24795541, -0.36083388, -0.31386843, -0.023253841, 0.023099393, 0.12517643, 0
884, 1821962683, 0.84248435, -0.24796413, -0.3608598, -0.3138694, 0.020274637, -0.0073437416, 0.15124989, 0
885, 1821979350, 0.84247315, -0.24796672, -0.36087283, -0.3138829, 0.024290271, 0.010123572, 0.16278744, 0
886, 1821996017, 0.8424553, -0.24797861, -0.36087945, -0.3139137, -0.0042103133, 0.01288731, 0.13798237, 0
887, 1822012684, 0.8424314, -0.24797916, -0.36092815, -0.31392154, 0.002419975, 0.016523866, 0.14133835, 0
888, 1822029351, 0.8423913, -0.24800026, -0.36095238, -0.31398416, 0.017245365, -0.01977665, 0.14742374, 0
889, 1822046018, 0.8423751, -0.24800843, -0.3609699, -0.31400126, 0.018833425, 0.0031175588, 0.15242195, 0
890, 1822062685, 0.8423836, -0.24799518, -0.3609566, -0.31400412, 0.016079523, 0.010940959, 0.15085411, 0
891, 1822079352, 0.8424037, -0.24795881, -0.3609906, -0.31393972, -0.023273958, 0.015041528, 0.12256718, 0
892, 1822096019, 0.84240186, -0.24795082, -0.3610121, -0.31392628, -0.0048678885, 0.015161331, 0.14294147, 0
893, 1822112686, 0.8424012, -0.24793981, -0.3610165, -0.31393167, 0.017379697, 0.008425991, 0.13632679, 0
894, 1822129353, 0.8423955, -0.24795255, -0.3609989, -0.31395745, 0.024308374, 0.0037652992, 0.149539, 0
895, 1822146020, 0.84240717, -0.2479644, -0.36098367, -0.3139341, 0.030005272, -0.0054141544, 0.146245, 0
896, 1822162687, 0.8424157, -0.24797428, -0.36097568, -0.31391275, 0.00593114, -0.010510697, 0.15713501, 0
897, 1822179354, 0.8424372, -0.24796654, -0.3609824, -0.3138536, 0.002812687, 0.011491919, 0.13730717, 0
898, 1822196021, 0.84247315, -0.24792701, -0.36101148, -0.3137548, 0.012205819, 0.006875482, 0.14258575, 0
899, 1822212688, 0.8424674, -0.24791971, -0.36101168, -0.3137755, -0.01167207, -0.0072914395, 0.14135933, 0
900, 1822229355, 0.8424631, -0.24791142, -0.36101887, -0.31378537, -0.0360247, 0.015742464, 0.1515379, 0
901, 1822246022, 0.84245855, -0.24789405, -0.36104783, -0.3137782, -0.008823174, 0.009901177, 0.14709663, 0
902, 1822262689, 0.8424309, -0.24789974, -0.3610908, -0.31379843, 0.008350891, 0.002593421, 0.13833523, 0
903, 1822279356, 0.84240365, -0.24792461, -0.36109397, -0.31384826, 0.05139569, -0.015261912, 0.15741348, 0
904, 1822296023, 0.842412, -0.24791852, -0.3610812, -0.31384516, 0.026044177, -0.036853265, 0.12533951, 0
905, 1822312690, 0.8424407, -0.24788466, -0.3610458, -0.31383562, 0.019730384, 0.009256119, 0.17839241, 0
906, 1822329357, 0.8424428, -0.24786866, -0.36102962, -0.31386125, -0.02391231, 0.057594817, 0.09187317, 0
907, 1822346024, 0.84243196, -0.24780957, -0.3611324, -0.31381872, -0.022376105, 0.015264594, 0.13709259, 0
908, 1822362691, 0.84246886, -0.24752954, -0.3614679, -0.3135544, -0.07269647, 0.107427925, 0.21996784, 0
909, 1822379358, 0.84264797, -0.24667783, -0.36240557, -0.3126608, 0.001000891, 0.020562746, 0.29069328, 0
910, 1822396025, 0.8426985, -0.24607086, -0.36339858, -0.31184915, 0.20265628, -0.096869394, 0.2629757, 0
911, 1822412692, 0.8427139, -0.24575008, -0.36434296, -0.31095722, 0.14408919, -0.023657504, 0.2507124, 0
912, 1822429359, 0.84257793, -0.2458978, -0.3650843, -0.31033882, 0.06923604, -0.05034674, 0.11255169, 0
913, 1822446026, 0.842312, -0.24651733, -0.36583364, -0.30968618, -0.12001215, 0.061633475, 0.16591358, 0
914, 1822462693, 0.8420384, -0.24678059, -0.36666262, -0.30924022, -0.19263375, 0.09837811, -0.07836819, 0
915, 1822479360, 0.8417465, -0.2470183, -0.36741444, -0.30895257, -0.020580178, -0.13202552, 0.1018486, 0
916, 1822496027, 0.8414908, -0.24688372, -0.3680624, -0.30898514, -0.16280594, 0.06488447, 0.10345459, 0
917, 1822512694, 0.84117043, -0.24708943, -0.36866418, -0.3089755, 0.03326968, -0.051433906, 0.09501934, 0
918, 1822529361, 0.84085023, -0.2472408, -0.3691326, -0.3091666, 0.044090837, -0.07464975, 0.17084312, 0
919, 1822546028, 0.84055805, -0.24729267, -0.3693579, -0.30965006, 0.024637833, -0.123622335, 0.09249973, 0
920, 1822562695, 0.84029937, -0.24735647, -0.3693966, -0.3102547, 0.022283347, -0.020590683, 0.15194225, 0
921, 1822579362, 0.84004843, -0.24736515, -0.36932164, -0.31101564, -0.029216943, -0.0023162647, 0.046933174, 0
922, 1822596029, 0.83978826, -0.24742773, -0.36921722, -0.31179163, -0.031506833, 0.049488228, 0.11872101, 0
923, 1822612696, 0.8395258, -0.24757813, -0.3691612, -0.31244466, 0.0015096065, 0.058262676, 0.1450243, 0
924, 1822629363, 0.8393057, -0.24785632, -0.36922452, -0.31274033, 0.05311316, 0.120591275, 0.16656399, 0
925, 1822646030, 0.8392672, -0.24805537, -0.36898798, -0.31296498, 0.11557788, -0.10783226, 0.06822777, 0
926, 1822662697, 0.8394176, -0.24810016, -0.36831462, -0.31331933, 0.084384635, -0.09247558, 0.14672375, 0
927, 1822679364, 0.8397983, -0.2478192, -0.36731637, -0.31369284, 0.10007122, -0.053373106, 0.117230415, 0
928, 1822696031, 0.8402409, -0.2474801, -0.36623257, -0.31404242, -0.0078334585, 0.036369804, 0.17440128, 0
929, 1822712698, 0.84054834, -0.24726492, -0.36545512, -0.3142948, -0.04141181, 0.054715525, 0.19291496, 0
930, 1822729365, 0.840746, -0.24714749, -0.3648843, -0.31452194, -0.013366074, 0.034627743, 0.13688469, 0
931, 1822746032, 0.8408841, -0.24708644, -0.36446574, -0.31468582, -0.023678962, 0.044030488, 0.18474865, 0
932, 1822762699, 0.8409698, -0.24698764, -0.36426482, -0.31476682, -0.0028352619, 0.02287588, 0.16987228, 0
933, 1822779366, 0.84103316, -0.24693885, -0.3641653, -0.31475097, 0.028081274, 0.01779163, 0.15063572, 0
934, 1822796033, 0.8410865, -0.24684747, -0.36414695, -0.31470138, -0.0066224653, 0.007884196, 0.14892101, 0
935, 1822812700, 0.84109324, -0.24680924, -0.36415952, -0.3146987, 0.0103023825, 0.014154405, 0.12996864, 0
936, 1822829367, 0.84108543, -0.24681209, -0.36418056, -0.31469285, 0.0027896652, 0.0051166588, 0.15702057, 0
937, 1822846034, 0.8410649, -0.24683218, -0.3642109, -0.3146972, -0.008586697, 6.6360994E-4, 0.13716602, 0
938, 1822862701, 0.841052, -0.24685931, -0.36423504, -0.31468245, 0.016551582, -0.018826943, 0.1434946, 0
939, 1822879368, 0.84103864, -0.24690656, -0.3642171, -0.31470177, 0.0068931393, 8.3727954E-4, 0.12813091, 0
940, 1822896035, 0.8410357, -0.2469227, -0.3642247, -0.31468818, -0.023800554, 0.010525895, 0.14007187, 0
941, 1822912702, 0.8409992, -0.24693647, -0.36434123, -0.3146402, -0.007907217, 0.02569885, 0.15861416, 0
942, 1822929369, 0.840977, -0.24691121, -0.36448216, -0.31455597, 0.022478027, -0.017723683, 0.16177464, 0
943, 1822946036, 0.84094685, -0.24690288, -0.3646297, -0.31447217, -0.004824527, 0.011613957, 0.13164043, 0
944, 1822962703, 0.8409009, -0.2469394, -0.36480153, -0.31436706, 0.0132737635, 8.0129394E-4, 0.17302132, 0
945, 1822979370, 0.84080666, -0.24707697, -0.36499757, -0.31428367, -0.0037968145, 0.007824965, 0.13375092, 0
946, 1822996037, 0.84069216, -0.2472094, -0.36519423, -0.3142569, -0.005716791, -0.016652163, 0.09910107, 0
947, 1823012704, 0.8405773, -0.24725506, -0.36549723, -0.31417602, -0.055516593, 0.018154839, 0.118971825, 0
948, 1823029371, 0.84052706, -0.24724586, -0.36563215, -0.3141609, 0.08965731, -0.03875938, 0.20446014, 0
949, 1823046038, 0.840607, -0.24718699, -0.36555487, -0.31408337, 0.13282414, -0.050985318, 0.19593143, 0
950, 1823062705, 0.84086907, -0.246879, -0.3652584, -0.31396905, 0.038273465, -0.035537668, 0.14882946, 0
951, 1823079372, 0.8410368, -0.24662425, -0.36508197, -0.31392452, -0.06672644, 0.056926962, 0.14516163, 0
952, 1823096039, 0.84120744, -0.24634458, -0.3649551, -0.31383467, 0.002336381, -0.03056182, 0.23301506, 0
953, 1823112706, 0.841541, -0.2460178, -0.36462337, -0.313582, 0.11396434, -5.547592E-4, 0.17800617, 0
954, 1823129373, 0.84185, -0.2458863, -0.36421782, -0.3133278, 0.12277097, 0.02566957, 0.26751328, 0
955, 1823146040, 0.8420556, -0.24590322, -0.36387327, -0.31316158, 0.030258514, -0.07674585, 0.1933651, 0
956, 1823162707, 0.8423425, -0.24610415, -0.36346936, -0.31270134, 0.18065949, 0.052469444, 0.3612919, 0
957, 1823179374, 0.8427248, -0.24636063, -0.36285982, -0.31217676, 0.05241446, 0.0807226, 0.3689146, 0
958, 1823196041, 0.84309494, -0.24694765, -0.3623945, -0.31125265, -0.01377868, 0.21421593, 0.42404175, 0
959, 1823212708, 0.8432585, -0.24797091, -0.36245462, -0.3099233, -0.09453101, 0.15864234, 0.6422224, 0
960, 1823229375, 0.8427869, -0.24936536, -0.36356804, -0.30878043, -0.21267235, 0.09925227, 0.8785353, 0
961, 1823246042, 0.84092236, -0.25154102, -0.36651015, -0.30862132, -0.578914, 0.34093013, 1.2056284, 0
962, 1823262709, 0.8379594, -0.25419313, -0.37167895, -0.30832583, -0.6087107, 0.293228, 1.8157387, 0
963, 1823279376, 0.83470994, -0.25777593, -0.3774593, -0.307141, -0.4461855, 0.34285322, 2.5077276, 0
964, 1823296043, 0.8313977, -0.26093873, -0.38322467, -0.30631375, -0.32990536, 0.4154051, 1.5770626, 0
965, 1823312710, 0.8268048, -0.2652284, -0.3906501, -0.30567992, 0.20686437, -0.6865415, 3.1159983, 0
966, 1823329377, 0.82400775, -0.2690857, -0.3949419, -0.30434358, 0.34617776, -0.41011363, 3.2150373, 0
967, 1823346044, 0.8241011, -0.272282, -0.3944166, -0.30191976, 1.0118552, -0.6507282, 3.9162893, 0
968, 1823362711, 0.8269722, -0.2745826, -0.3890845, -0.29888916, 1.0181842, -0.5100458, 3.3643494, 0
969, 1823379378, 0.8307771, -0.27693728, -0.3819091, -0.29539907, 0.6170357, -0.30403686, 2.2465124, 0
970, 1823396045, 0.8337998, -0.27984694, -0.37608024, -0.29159448, 0.14990097, -0.03881526, 1.3162994, 0
971, 1823412712, 0.8354456, -0.2836112, -0.37291986, -0.2872739, 0.23907036, -0.029786678, 1.0626926, 0
972, 1823429379, 0.83643585, -0.28791344, -0.37124637, -0.2822362, 0.48422763, -0.107294045, 1.3438835, 0
973, 1823446046, 0.83765906, -0.29221582, -0.36921597, -0.27679738, 0.81336296, -0.27464804, 1.625412, 0
974, 1823462713, 0.83984274, -0.29602942, -0.36524054, -0.27134928, 1.0441084, -0.39429608, 1.4701796, 0
975, 1823479380, 0.84302497, -0.29906452, -0.35920465, -0.26616067, 1.1175694, -0.4401426, 1.1247892, 0
976, 1823496047, 0.84673035, -0.30147052, -0.35210449, -0.26112425, 1.1342223, -0.3614066, 0.7893028, 0
977, 1823512714, 0.8503593, -0.30409494, -0.3450466, -0.25565273, 1.1517776, -0.052411776, 0.3082056, 0
978, 1823529381, 0.8536309, -0.30745906, -0.33880094, -0.24899256, 1.2491128, -0.05963415, -0.045495033, 0
979, 1823546048, 0.8566104, -0.31121635, -0.3333221, -0.2413701, 1.2100558, -0.10643374, -0.102500916, 0
980, 1823562715, 0.85918474, -0.31514722, -0.32857522, -0.23350033, 1.3707924, -0.18471044, 0.10856819, 0
981, 1823579382, 0.86201453, -0.3187946, -0.32320344, -0.22547923, 1.5558028, -0.2782401, 0.5189171, 0
982, 1823596049, 0.8656072, -0.32193136, -0.3160697, -0.21721992, 1.5511357, -0.25228086, 0.3962965, 0
983, 1823612716, 0.8696449, -0.32479042, -0.30758932, -0.20884944, 1.3262858, -0.07404582, 0.05922413, 0
984, 1823629383, 0.8736269, -0.3275989, -0.2986626, -0.2006385, 0.8355484, 0.10044315, -0.34934998, 0
985, 1823646050, 0.8771976, -0.3302907, -0.2904867, -0.19248387, 0.51531, 0.24920197, -0.6918001, 0
986, 1823662717, 0.8800895, -0.33313566, -0.28362703, -0.18444216, 0.4468279, 0.34988227, -0.8490524, 0
987, 1823679384, 0.8822967, -0.33645263, -0.27801168, -0.176244, 0.45334238, 0.42486393, -0.8944378, 0
988, 1823696051, 0.88417083, -0.34014526, -0.2725799, -0.16805789, 0.71614534, 0.34701392, -0.67595196, 0
989, 1823712718, 0.8860219, -0.34399384, -0.26647052, -0.16008453, 0.5697589, 0.33574754, -0.7037163, 0
990, 1823729385, 0.88786614, -0.34763375, -0.26019508, -0.15212862, 0.34165654, 0.31994605, -0.8255453, 0
991, 1823746052, 0.889591, -0.35131827, -0.25369993, -0.14435953, 0.1772241, 0.42658073, -0.94752693, 0
992, 1823762719, 0.89103854, -0.3554511, -0.24698266, -0.13676365, 0.047520194, 0.53051114, -1.1645432, 0
993, 1823779386, 0.892173, -0.3598943, -0.24043764, -0.1292036, -0.010412128, 0.47793484, -1.3398771, 0
994, 1823796053, 0.8930773, -0.36430022, -0.23416749, -0.12191852, -0.28811926, 0.27596384, -1.4206219, 0
995, 1823812720, 0.8939621, -0.3681123, -0.22829157, -0.114927575, -0.49015877, 0.13540281, -1.3534336, 0
996, 1823829387, 0.89463913, -0.3713848, -0.22357553, -0.108204596, -0.72067374, 0.2638783, -1.2378826, 0
997, 1823846054, 0.89516234, -0.37420464, -0.21969402, -0.10193177, -0.5964441, 0.1677344, -1.0582428, 0
998, 1823862721, 0.89558387, -0.37667635, -0.21640061, -0.09599706, -0.678405, 0.19559887, -1.026061, 0
999, 1823879388, 0.8959971, -0.37898624, -0.21317212, -0.09009199, -0.6165166, 0.14666027, -1.0779362, 0
1000, 1823896055, 0.8965885, -0.3809651, -0.20962933, -0.08396652, -0.6537661, 0.052879814, -1.0470629, 0
1001, 1823912722, 0.8972956, -0.38280147, -0.20540103, -0.07832131, -0.8445479, 0.009379274, -1.0516453, 0
1002, 1823929389, 0.8981316, -0.38412675, -0.20100822, -0.07349919, -1.026809, -0.1454372, -0.97646713, 0
1003, 1823946056, 0.8991328, -0.38482693, -0.19649112, -0.069712535, -1.2944034, -0.18795808, -1.0326481, 0
1004, 1823962723, 0.90006524, -0.38509345, -0.19260891, -0.06698977, -1.4576608, -0.12084809, -1.0421991, 0
1005, 1823979390, 0.9008219, -0.3851077, -0.1896813, -0.06506449, -1.5913008, -0.14489898, -0.9728575, 0
1006, 1823996057, 0.9013864, -0.38507155, -0.18757346, -0.06355241, -1.4911954, -0.009285399, -1.0409718, 0
1007, 1824012724, 0.90175295, -0.3853481, -0.18569365, -0.06218152, -1.3795438, 0.082204044, -1.1774817, 0
1008, 1824029391, 0.9018555, -0.38601556, -0.18421273, -0.06094754, -1.5909706, -0.021537485, -1.3381443, 0
1009, 1824046058, 0.9017691, -0.38679904, -0.18326414, -0.060110275, -1.7292639, -0.16569105, -1.3421192, 0
1010, 1824062725, 0.9015972, -0.38739687, -0.18288174, -0.060004216, -1.7317207, -0.25082868, -1.358161, 0
1011, 1824079392, 0.9014628, -0.38744673, -0.18314937, -0.060879063, -1.847417, -0.29857463, -1.339036, 0
1012, 1824096059, 0.9013606, -0.3868044, -0.18432672, -0.06289206, -1.7979101, -0.31721854, -1.345355, 0
1013, 1824112726, 0.90128165, -0.38564688, -0.18602282, -0.066056654, -1.5918871, -0.17050172, -1.3406267, 0
1014, 1824129393, 0.90123385, -0.3843582, -0.18748799, -0.06996169, -1.4316655, -0.02128961, -1.3392067, 0
1015, 1824146060, 0.9011386, -0.38300523, -0.18900415, -0.07439035, -1.6961687, 0.029359544, -1.3293848, 0
1016, 1824162727, 0.90078545, -0.38147733, -0.1916699, -0.07951912, -1.8811916, 0.039093755, -1.2129812, 0
1017, 1824179394, 0.90005434, -0.37984276, -0.19585451, -0.085222125, -1.8073888, 0.16293916, -1.1361723, 0
1018, 1824196061, 0.89894956, -0.37831676, -0.20105991, -0.091330014, -1.4726766, 0.26810715, -1.1184063, 0
1019, 1824212728, 0.8973833, -0.37720206, -0.2070738, -0.09768553, -1.2642232, 0.3360667, -1.2359924, 0
1020, 1824229395, 0.8954099, -0.37647638, -0.21372473, -0.104059234, -1.1123413, 0.31277776, -1.2654028, 0
1021, 1824246062, 0.89315575, -0.37603623, -0.22058304, -0.110511914, -0.8160503, 0.299599, -1.2961388, 0
1022, 1824262729, 0.890846, -0.37553892, -0.22715183, -0.117330015, -0.47050494, 0.25551555, -1.2837353, 0
1023, 1824279396, 0.88870233, -0.37472707, -0.23283741, -0.12479905, -0.22561309, 0.3213857, -1.1358986, 0
1024, 1824296063, 0.8866888, -0.3734632, -0.23795171, -0.13299297, -0.13175407, 0.3061609, -1.199461, 0
1025, 1824312730, 0.8846857, -0.37188068, -0.24284023, -0.14164913, -0.09343311, 0.44873244, -1.2825203, 0
1026, 1824329397, 0.8823851, -0.3704154, -0.2480752, -0.15049215, -0.0139481025, 0.506945, -1.4149408, 0
1027, 1824346064, 0.8795515, -0.36914054, -0.25449646, -0.15923707, -0.18365903, 0.43126646, -1.5703955, 0
1028, 1824362731, 0.8759568, -0.3680476, -0.2628217, -0.16782603, 0.01981733, 0.3929114, -1.4369373, 0
1029, 1824379398, 0.8718014, -0.36711374, -0.27225402, -0.17626067, 0.38505158, 0.28639677, -1.1093388, 0
1030, 1824396065, 0.8676029, -0.36598748, -0.2814852, -0.18462011, 0.8577779, 0.13716297, -0.56201935, 0
1031, 1824412732, 0.8639473, -0.36443684, -0.28904268, -0.19296494, 1.1555423, 0.013173854, -0.19413567, 0
1032, 1824429399, 0.8609825, -0.36236292, -0.2947645, -0.20128654, 1.1149267, -0.019264136, -0.19140244, 0
1033, 1824446066, 0.85858136, -0.35991073, -0.29901633, -0.209503, 1.2155024, -0.025408953, -0.08414745, 0
1034, 1824462733, 0.85640264, -0.35747743, -0.30254233, -0.2173767, 1.1658863, 0.03034479, -0.23851871, 0
1035, 1824479400, 0.8539158, -0.35509476, -0.3067913, -0.22497706, 0.84553385, -0.03244693, -0.3190899, 0
1036, 1824496067, 0.8504766, -0.3528134, -0.3133819, -0.23238795, 0.8089857, -0.07111176, -0.3580885, 0
1037, 1824512734, 0.84615856, -0.35083157, -0.32174367, -0.23961218, 1.234039, -0.113314584, 0.03534317, 0
1038, 1824529401, 0.84182054, -0.34902462, -0.3299916, -0.24622315, 1.6320118, -0.26297975, 0.8402786, 0
1039, 1824546068, 0.83829814, -0.34704706, -0.3365753, -0.25205505, 1.8058542, -0.43618733, 1.5275126, 0
1040, 1824562735, 0.8358018, -0.34469116, -0.34101942, -0.25754473, 1.5994952, -0.5788847, 1.693244, 0
1041, 1824579402, 0.8336621, -0.34205097, -0.34471172, -0.26302624, 1.1928285, -0.49567863, 1.2545595, 0
1042, 1824596069, 0.8311389, -0.33930945, -0.3493282, -0.26841626, 0.88032097, -0.45717654, 0.9556589, 0
1043, 1824612736, 0.82819414, -0.3364407, -0.3551413, -0.2734542, 0.8448224, -0.4161152, 1.135849, 0
1044, 1824629403, 0.8252173, -0.3335743, -0.36130926, -0.27784964, 1.0949078, -0.27015677, 1.6738491, 0
1045, 1824646070, 0.8229098, -0.33104938, -0.36626568, -0.28120333, 1.2779406, -0.25575292, 2.0145407, 0
1046, 1824662737, 0.8213463, -0.32867312, -0.36982062, -0.28389615, 0.96171075, -0.29569533, 1.8961306, 0
1047, 1824679404, 0.82012326, -0.32605618, -0.3729916, -0.28629106, 0.64770746, -0.40361813, 1.9533796, 0
1048, 1824696071, 0.81920385, -0.3231431, -0.3758017, -0.2885429, 0.44824338, -0.31952316, 1.9496498, 0
1049, 1824712738, 0.81834435, -0.32010922, -0.37871468, -0.29054818, 0.37335157, -0.23396823, 1.8434734, 0
1050, 1824729405, 0.81741816, -0.3172872, -0.38156125, -0.29251927, 0.20895556, -0.048139997, 1.585762, 0
1051, 1824746072, 0.8161908, -0.31495267, -0.38480216, -0.2942189, -0.032175362, 0.0751911, 1.2696581, 0
1052, 1824762739, 0.8146698, -0.31306818, -0.38838467, -0.29573452, -0.092634276, 0.07668685, 1.0233212, 0
1053, 1824779406, 0.813014, -0.31144807, -0.39203414, -0.2971829, -0.0741417, 0.009343289, 0.9808693, 0
1054, 1824796073, 0.81164247, -0.31004152, -0.39508334, -0.29836234, 0.01804286, 0.038551513, 1.0245104, 0
1055, 1824812740, 0.8107518, -0.3088686, -0.3971129, -0.2993043, 0.040108506, 0.026254503, 0.8924017, 0
1056, 1824829407, 0.80998564, -0.3078617, -0.3987793, -0.30019915, -0.1321498, 0.023068773, 0.57389355, 0
1057, 1824846074, 0.80911386, -0.30687562, -0.40064868, -0.3010694, -0.20706107, -0.02836223, 0.3119192, 0
1058, 1824862741, 0.80818695, -0.30573618, -0.402767, -0.30189085, -0.13575014, -0.15302703, 0.37892914, 0
1059, 1824879408, 0.8074499, -0.3043108, -0.4047505, -0.3026495, -0.006346427, -0.18931837, 0.44739628, 0
1060, 1824896075, 0.8069979, -0.30265653, -0.4064361, -0.30325472, -0.004357385, -0.1290689, 0.5095148, 0
1061, 1824912742, 0.8068117, -0.30090234, -0.40779838, -0.30366674, -0.04321757, -0.10385239, 0.5314064, 0
1062, 1824929409, 0.806789, -0.29903522, -0.40896243, -0.30400535, -0.085135415, -0.078467354, 0.5276222, 0
1063, 1824946076, 0.80684525, -0.29701144, -0.41000843, -0.30443087, -0.18171135, -0.05162255, 0.49650097, 0
1064, 1824962743, 0.8068261, -0.29502228, -0.4111032, -0.30493885, -0.11640532, 0.08063498, 0.46696758, 0
1065, 1824979410, 0.80676895, -0.29342183, -0.4122313, -0.3051113, -0.07723602, 0.16757391, 0.5133734, 0
1066, 1824996077, 0.80674297, -0.29220614, -0.41318673, -0.30505437, -0.111546375, 0.17292012, 0.66502, 0
1067, 1825012744, 0.8066463, -0.29128093, -0.41411838, -0.30493158, -0.2049873, 0.14743227, 0.7448988, 0
1068, 1825029411, 0.8064359, -0.290569, -0.41503462, -0.30492178, -0.18364495, 0.12694731, 0.71518135, 0
1069, 1825046078, 0.8062053, -0.28997228, -0.4156658, -0.30523983, -0.13009572, 0.0884139, 0.67934036, 0
1070, 1825062745, 0.8060099, -0.2894029, -0.4160414, -0.3057838, -0.1718019, 0.060035355, 0.47334766, 0
1071, 1825079412, 0.80580556, -0.2887711, -0.41642842, -0.30639222, -0.1309073, -1.6607012E-4, 0.33433056, 0
1072, 1825096079, 0.80558425, -0.28803578, -0.41690457, -0.30701792, -0.059857663, -0.010370107, 0.26026726, 0
1073, 1825112746, 0.80531895, -0.28741503, -0.41746867, -0.30752903, 0.012533936, 0.025326254, 0.23224068, 0
1074, 1825129413, 0.8050925, -0.28691018, -0.41784593, -0.3080805, 0.05090485, -0.021385273, 0.31486797, 0
1075, 1825146080, 0.80498123, -0.28642493, -0.41800895, -0.3086014, 0.028451858, -0.03526632, 0.43721104, 0
1076, 1825162747, 0.8050335, -0.28597102, -0.41793016, -0.3089921, 0.11427949, -0.014397587, 0.48180485, 0
1077, 1825179414, 0.8052408, -0.2858359, -0.41757545, -0.30905643, 0.16035356, 0.053535376, 0.4005537, 0
1078, 1825196081, 0.805367, -0.28596383, -0.41735554, -0.30890635, 0.06704338, 0.0024682535, 0.22677135, 0
1079, 1825212748, 0.805212, -0.28618172, -0.41755855, -0.3088343, 0.021493454, -0.055389192, 0.14538765, 0
1080, 1825229415, 0.8049408, -0.28631756, -0.41791555, -0.30893278, 0.116473496, -0.14341642, 0.15437031, 0
1081, 1825246082, 0.8048761, -0.28627074, -0.4179152, -0.30914494, 0.18860358, -0.17765525, 0.15956497, 0
1082, 1825262749, 0.80508393, -0.28607142, -0.41747892, -0.30937806, 0.16435109, -0.1563976, 0.076524734, 0
1083, 1825279416, 0.80551714, -0.28592175, -0.41665822, -0.309495, 0.22008851, -0.06804226, 0.10817528, 0
1084, 1825296083, 0.80614555, -0.28601637, -0.41554055, -0.3092738, 0.13323206, -0.013639208, 0.24057007, 0
1085, 1825312750, 0.8067207, -0.2863007, -0.41453817, -0.3088561, -0.054139756, 0.0645083, 0.39172173, 0
1086, 1825329417, 0.80705285, -0.2867965, -0.41399485, -0.3082561, -0.21295823, 0.15335225, 0.7442074, 0
1087, 1825346084, 0.8067438, -0.2875888, -0.4145816, -0.3075377, -0.33769992, 0.20592472, 0.7873821, 0
1088, 1825362751, 0.80535, -0.28885633, -0.41676304, -0.30705404, -0.24161482, 0.16340004, 1.2715445, 0
1089, 1825379418, 0.80327004, -0.2909072, -0.41979933, -0.30642906, 0.03045543, 0.013965537, 2.2791605, 0
1090, 1825396085, 0.8019293, -0.2933586, -0.4212295, -0.30564043, 0.44829234, -0.22480375, 3.8352232, 0
1091, 1825412752, 0.80191797, -0.29643434, -0.42021042, -0.30410123, 0.45873487, -0.2037638, 4.7531605, 0
1092, 1825429419, 0.8030168, -0.30042082, -0.4169826, -0.30172342, 0.4575373, -0.12547883, 4.7099257, 0
1093, 1825446086, 0.8044724, -0.30549413, -0.41281852, -0.29846057, 0.4133756, -0.07450335, 4.393812, 0
1094, 1825462753, 0.8057375, -0.31177735, -0.40855625, -0.29438722, 0.50010395, -0.08936071, 4.0899878, 0
1095, 1825479420, 0.8068213, -0.31892616, -0.40435594, -0.2895201, 0.6966327, -0.19343348, 3.810049, 0
1096, 1825496087, 0.80809367, -0.32650462, -0.3996357, -0.28402618, 0.9111912, -0.2944913, 3.5773058, 0
1097, 1825512754, 0.8096065, -0.33407933, -0.39452058, -0.27799654, 1.0632194, -0.3474786, 3.2414875, 0
1098, 1825529421, 0.81161755, -0.34123817, -0.38864508, -0.27164072, 1.2738727, -0.37897673, 3.0749626, 0
1099, 1825546088, 0.81461245, -0.34774125, -0.38137963, -0.2646368, 1.4305886, -0.37697738, 2.8503351, 0
1100, 1825562755, 0.8187984, -0.3536449, -0.37230638, -0.25669524, 1.6225849, -0.23191637, 2.377839, 0
1101, 1825579422, 0.8240265, -0.3591785, -0.36116317, -0.24805704, 1.6248214, -0.11188723, 1.7092524, 0
1102, 1825596089, 0.82964724, -0.3644294, -0.34901133, -0.2388885, 1.3224548, -0.0069990847, 0.9041214, 0
1103, 1825612756, 0.8354696, -0.36925653, -0.3362784, -0.22925305, 1.0351297, 0.057327945, 0.19766903, 0
1104, 1825629423, 0.8412426, -0.37381166, -0.32306913, -0.21954997, 0.77097154, 0.17369705, -0.41370583, 0
1105, 1825646090, 0.84656775, -0.37807515, -0.3100456, -0.21036686, 0.57686126, 0.092722565, -0.89097977, 0
1106, 1825662757, 0.8512874, -0.38197252, -0.29779288, -0.20180774, 0.2790338, 0.071829244, -1.3625259, 0
1107, 1825679424, 0.8555138, -0.38534334, -0.28660738, -0.19355372, 0.2082316, 0.06502372, -1.4492054, 0
1108, 1825696091, 0.8593024, -0.38846207, -0.2763149, -0.18532948, 0.37747315, 0.09194496, -1.5144949, 0
1109, 1825712758, 0.8629426, -0.39130294, -0.26625052, -0.1769829, 0.30931556, 0.033672452, -1.7193308, 0
1110, 1825729425, 0.8663497, -0.39388952, -0.25674045, -0.1684451, 0.15763296, 2.4385263E-4, -1.9273858, 0
1111, 1825746092, 0.86949867, -0.39618894, -0.24786872, -0.15989931, 0.20938872, -0.07960481, -2.036539, 0
1112, 1825762759, 0.87253684, -0.3979768, -0.23941936, -0.15156671, 0.41602778, -0.118361734, -1.9276595, 0
1113, 1825779426, 0.87576026, -0.39916736, -0.23059744, -0.14329766, 0.5341321, -0.12685008, -1.8318834, 0
1114, 1825796093, 0.8791049, -0.39984113, -0.22144175, -0.13514912, 0.49885008, -0.05472469, -1.9278417, 0
1115, 1825812760, 0.8821851, -0.40041512, -0.21255532, -0.12742688, 0.11342813, 0.06644012, -2.1756587, 0
1116, 1825829427, 0.8847908, -0.40111294, -0.20442823, -0.12026258, -0.1884535, 0.10771782, -2.257553, 0
1117, 1825846094, 0.88699824, -0.40190947, -0.19689825, -0.113728955, -0.2759501, 0.082406096, -2.1264315, 0
