DeviceTag:,Xsens DOT 1,,,,,,,,,,,,,,,,,
FirmwareVersion:,1.0.0,,,,,,,,,,,,,,,,,
AppVersion:,2020.1.1,,,,,,,,,,,,,,,,,
Measurement Mode:,Sensor fusion Mode - Extended (Quaternion),,,,,,,,,,,,,,,,,
StartTime:,2020-06-15 14:15:13.640 +0200,,,,,,,,,,,,,,,,,
© Xsens Technologies B. V. 2005-2020,,,,,,,,,,,,,,,,,,,
PacketCounter,SampleTimeFine,Quat_W,Quat_X,Quat_Y,Quat_Z,FreeAcc_X,FreeAcc_Y,FreeAcc_Z,Status
1, 1223171382, 0.05863734, 0.67506653, -0.038323615, 0.73442364, -0.08718541, 0.062584355, 0.04797554, 0
2, 1223188049, 0.05816692, 0.6759179, -0.038820222, 0.73365164, -0.07855926, 0.05065508, 0.041212082, 0
3, 1223204716, 0.057758145, 0.6766858, -0.03924629, 0.732953, -0.06503995, 0.033578854, 0.054958344, 0
4, 1223221383, 0.057477884, 0.6772601, -0.0395289, 0.7324292, -0.03755092, 0.019734545, 0.033041, 0
5, 1223238050, 0.05730553, 0.6776373, -0.039711643, 0.732084, -0.026675086, 0.008313229, 0.038981438, 0
6, 1223254717, 0.0571978, 0.677886, -0.039821777, 0.7318561, -0.020848121, 4.5697225E-4, 0.052092552, 0
7, 1223271384, 0.05713719, 0.6780677, -0.039880175, 0.7316893, -0.02056679, 0.009722646, 0.06475067, 0
8, 1223288051, 0.057086457, 0.67819464, -0.039922405, 0.7315733, -0.010977996, 0.00847332, 0.048721313, 0
9, 1223304718, 0.057059523, 0.6782879, -0.03995318, 0.7314873, -0.020508848, 0.030143153, 0.032274246, 0
10, 1223321385, 0.05703155, 0.6783595, -0.039984275, 0.7314213, -0.015248766, 0.005946534, 0.043409348, 0
11, 1223338052, 0.05700639, 0.67841244, -0.040023685, 0.73137206, -0.024400046, 0.014165329, 0.045692444, 0
12, 1223354719, 0.05697629, 0.67845356, -0.040049408, 0.73133475, -0.011282329, 0.016170995, 0.04361534, 0
13, 1223371386, 0.05693848, 0.67849493, -0.04008209, 0.73129755, -0.0020502703, -0.003651168, 0.0425663, 0
14, 1223388053, 0.056889605, 0.6785349, -0.040076096, 0.7312646, 0.010034602, -9.4191154E-4, 0.04749775, 0
15, 1223404720, 0.056750067, 0.67856663, -0.03999602, 0.7312505, 0.005765953, -0.0023942988, 0.046873093, 0
16, 1223421387, 0.056532312, 0.6786034, -0.039811578, 0.7312432, -0.0016959726, 0.013848471, 0.04886532, 0
17, 1223438054, 0.05643464, 0.67862564, -0.039733093, 0.7312343, -0.014956816, 0.015911551, 0.056236267, 0
18, 1223454721, 0.05632857, 0.6786524, -0.039634738, 0.7312231, -0.012867808, 0.0066578924, 0.0467453, 0
19, 1223471388, 0.0564403, 0.6786634, -0.03972574, 0.73119926, -0.009695208, -0.0056030788, 0.06657791, 0
20, 1223488055, 0.056373134, 0.6786703, -0.039667256, 0.7312013, -8.070983E-4, 0.0018828172, 0.055847168, 0
21, 1223504722, 0.056328427, 0.67868185, -0.039623473, 0.7311963, 6.8210217E-4, 0.0019445628, 0.048197746, 0
22, 1223521389, 0.056190617, 0.6787026, -0.03951066, 0.73119384, 0.009360007, -0.0031571484, 0.05046749, 0
23, 1223538056, 0.056172386, 0.6787095, -0.039494805, 0.7311896, -0.008378504, 0.0018422776, 0.046304703, 0
24, 1223554723, 0.056179475, 0.6787229, -0.03949774, 0.73117656, -0.01274713, -0.004683742, 0.035542488, 0
25, 1223571390, 0.055964585, 0.6787398, -0.039295387, 0.73118824, -0.010606133, 0.0085143065, 0.028326035, 0
26, 1223588057, 0.055724517, 0.6787554, -0.03906892, 0.7312042, -0.00780594, 0.00847522, 0.041526794, 0
27, 1223604724, 0.055272747, 0.6787782, -0.038660336, 0.73123914, -0.0057629007, 0.0012448834, 0.04959774, 0
28, 1223621391, 0.055494603, 0.67876846, -0.038873058, 0.73122, 1.0687412E-4, -0.0036381483, 0.05383873, 0
29, 1223638058, 0.05547867, 0.6787706, -0.03885472, 0.7312201, 0.0036127341, -0.0075908354, 0.033266068, 0
30, 1223654725, 0.05577457, 0.678764, -0.03913121, 0.7311891, -2.4069901E-4, 0.0019471331, 0.03455925, 0
31, 1223671392, 0.055738565, 0.67877734, -0.039114278, 0.7311802, -0.0035939608, -0.009732145, 0.041460037, 0
32, 1223688059, 0.055780582, 0.67877746, -0.039156646, 0.73117477, -0.002825532, 0.0036522856, 0.05237007, 0
33, 1223704726, 0.055749223, 0.67878467, -0.039121166, 0.7311723, 0.0041687945, 0.004935082, 0.042544365, 0
34, 1223721393, 0.055759575, 0.6787827, -0.039135575, 0.73117256, -0.00409423, 0.011140528, 0.043244362, 0
35, 1223738060, 0.05564877, 0.6787829, -0.03904668, 0.73118573, -0.009148321, 0.0048276563, 0.05224037, 0
36, 1223754727, 0.05563314, 0.6787793, -0.039034154, 0.7311908, -0.003721372, 0.0013939944, 0.036075592, 0
37, 1223771394, 0.05531618, 0.67879677, -0.038747, 0.7312138, -0.0065558325, -3.9450036E-4, 0.05307865, 0
38, 1223788061, 0.055319015, 0.6787914, -0.038762636, 0.73121786, -0.0030736611, -0.002558972, 0.046845436, 0
39, 1223804728, 0.055184048, 0.67879426, -0.038645755, 0.73123163, 0.0066527445, -0.010675174, 0.041044235, 0
40, 1223821395, 0.055150546, 0.67878735, -0.038629558, 0.73124146, 6.264911E-4, 2.1342693E-4, 0.046331406, 0
41, 1223838062, 0.055156272, 0.67878115, -0.038633816, 0.7312464, -0.002886488, 0.0076592304, 0.048398018, 0
42, 1223854729, 0.05525214, 0.67877644, -0.038713966, 0.7312393, -0.012863312, 0.008192224, 0.04106617, 0
43, 1223871396, 0.05517701, 0.6787769, -0.038626198, 0.7312493, -0.01423856, 0.013492276, 0.047201157, 0
44, 1223888063, 0.05543758, 0.6787599, -0.03885253, 0.73123336, 0.009275145, -0.0065948055, 0.039746284, 0
45, 1223904730, 0.055580143, 0.6787552, -0.038961414, 0.731221, 0.0054414594, -0.01088754, 0.04769039, 0
46, 1223921397, 0.055550992, 0.6787586, -0.0389215, 0.7312223, 0.0010105981, -0.002436794, 0.054131508, 0
47, 1223938064, 0.055524264, 0.6787686, -0.038872626, 0.7312177, 0.0031398977, -0.0045879944, 0.037988663, 0
48, 1223954731, 0.05529413, 0.678789, -0.038641904, 0.73122835, -0.012961607, 0.005183545, 0.04677868, 0
49, 1223971398, 0.05558976, 0.67877316, -0.0389032, 0.7312068, -0.0038040648, -2.536872E-4, 0.04507351, 0
50, 1223988065, 0.055375952, 0.67878616, -0.03870697, 0.7312214, 0.0033379425, 0.020393629, 0.05088806, 0
51, 1224004732, 0.055348456, 0.6787914, -0.0386853, 0.73121977, -8.332528E-4, -7.401073E-5, 0.04419899, 0
52, 1224021399, 0.055395756, 0.678788, -0.038733788, 0.7312168, -0.0038487953, 0.00683226, 0.05173397, 0
53, 1224038066, 0.055460513, 0.67878485, -0.038776588, 0.73121256, -0.004720602, -0.00503516, 0.05195999, 0
54, 1224054733, 0.05545419, 0.67878896, -0.038756642, 0.7312102, 0.005918171, 0.007896797, 0.04614067, 0
55, 1224071400, 0.05520867, 0.67881036, -0.0385299, 0.7312209, 0.0068545155, -0.002554362, 0.044317245, 0
56, 1224088067, 0.055083267, 0.67882687, -0.03840868, 0.7312215, 0.007815549, 0.007800798, 0.042490005, 0
57, 1224104734, 0.055042308, 0.6788287, -0.038338527, 0.7312265, 0.0022079484, -0.0014200616, 0.035038948, 0
58, 1224121401, 0.05502016, 0.67882675, -0.03830898, 0.7312315, -0.0038926406, -0.0059740543, 0.044794083, 0
59, 1224138068, 0.054785762, 0.67884475, -0.038104977, 0.731243, 0.004242901, 0.0048220404, 0.050520897, 0
60, 1224154735, 0.05468398, 0.6788465, -0.03803734, 0.73125255, -0.0049389694, -0.0010073449, 0.03770256, 0
61, 1224171402, 0.05457435, 0.67884713, -0.03794819, 0.7312648, 0.0028472808, 0.0018192558, 0.042330742, 0
62, 1224188069, 0.054718986, 0.6788306, -0.038089402, 0.7312621, 0.005220573, 0.005054969, 0.02658081, 0
63, 1224204736, 0.05455368, 0.6788459, -0.037932266, 0.7312683, -0.0029481987, 0.002260582, 0.06061077, 0
64, 1224221403, 0.054581426, 0.6788461, -0.037950467, 0.73126507, -0.0013956341, 0.0064498014, 0.054567337, 0
65, 1224238070, 0.054575995, 0.6788528, -0.03792379, 0.7312606, -0.011120131, 0.007297307, 0.04206562, 0
66, 1224254737, 0.054539945, 0.6788684, -0.037878565, 0.7312512, -0.008117124, 0.017968904, 0.05258751, 0
67, 1224271404, 0.054787517, 0.6788625, -0.038104735, 0.7312264, 2.548065E-4, 0.00530156, 0.058125496, 0
68, 1224288071, 0.054452173, 0.6788752, -0.03778729, 0.7312562, 0.0037518973, -0.0034623833, 0.06338501, 0
69, 1224304738, 0.054472443, 0.67886734, -0.037801553, 0.73126113, -0.0013575042, -0.00676258, 0.035276413, 0
70, 1224321405, 0.054485466, 0.6788591, -0.037817996, 0.7312671, -0.0032979546, -0.009395507, 0.038368225, 0
71, 1224338072, 0.054478083, 0.67885685, -0.037826978, 0.73126924, -0.0067353672, 0.0024819158, 0.039297104, 0
72, 1224354739, 0.05470092, 0.67884684, -0.038017914, 0.73125196, -0.0144717535, 0.017891401, 0.044947624, 0
73, 1224371406, 0.054750994, 0.678844, -0.038037088, 0.7312499, -0.011009069, -0.0026524563, 0.04857731, 0
74, 1224388073, 0.054868083, 0.6788303, -0.03814829, 0.73124796, -0.008731023, -0.0030378485, 0.050006866, 0
75, 1224404740, 0.054794785, 0.67882615, -0.0380729, 0.7312613, 0.013526758, -0.0038492284, 0.04833603, 0
76, 1224421407, 0.05477587, 0.67883116, -0.038067, 0.7312584, 0.012064416, 0.0065052607, 0.040190697, 0
77, 1224438074, 0.05474986, 0.6788415, -0.038065903, 0.7312509, 0.0051206085, -0.0060144262, 0.04462719, 0
78, 1224454741, 0.054747693, 0.6788602, -0.03805176, 0.7312343, -0.0015703863, -0.006637189, 0.035147667, 0
79, 1224471408, 0.054734893, 0.67886347, -0.038022432, 0.7312338, -0.0024015892, 0.005989812, 0.041362762, 0
80, 1224488075, 0.054747436, 0.6788507, -0.038011994, 0.73124534, -0.02329905, 0.0039153043, 0.04367447, 0
81, 1224504742, 0.054688606, 0.6788499, -0.037955217, 0.7312534, -0.0081058545, -0.0063489415, 0.04390335, 0
82, 1224521409, 0.054684944, 0.6788486, -0.03796516, 0.73125416, 0.001490435, 0.006211984, 0.058506012, 0
83, 1224538076, 0.054671913, 0.6788364, -0.037973642, 0.73126614, 0.004816645, -0.0034908813, 0.050899506, 0
84, 1224554743, 0.054719355, 0.6788296, -0.038021553, 0.7312664, 0.024951398, 0.0025477405, 0.04630375, 0
85, 1224571410, 0.054817796, 0.67882174, -0.038119994, 0.7312612, -0.0037039013, 0.002482698, 0.060079575, 0
86, 1224588077, 0.05485709, 0.67881924, -0.038164414, 0.73125833, 0.0044732136, 0.008391039, 0.05292225, 0
87, 1224604744, 0.05487294, 0.67880905, -0.03818946, 0.7312653, -0.010231875, -0.0069129765, 0.032946587, 0
88, 1224621411, 0.05493247, 0.6788075, -0.038243767, 0.73125947, 0.0018448166, -0.0040247138, 0.047350883, 0
89, 1224638078, 0.055450138, 0.6787831, -0.038737237, 0.731217, -0.0025484771, 0.0047586467, 0.031288147, 0
90, 1224654745, 0.055458352, 0.6787849, -0.038741987, 0.73121446, 0.007651671, 0.007526603, 0.041745186, 0
91, 1224671412, 0.05559045, 0.6787757, -0.03887325, 0.7312059, 2.3794352E-4, -0.004288096, 0.047904015, 0
92, 1224688079, 0.055525675, 0.67877585, -0.03881046, 0.7312141, 0.0039297594, 0.0017517549, 0.0587492, 0
93, 1224704746, 0.055649053, 0.67877996, -0.038925197, 0.7311949, -0.00277879, 0.0035271742, 0.053668022, 0
94, 1224721413, 0.055716816, 0.6787827, -0.03897916, 0.73118424, -0.014724176, -0.0032236995, 0.04345894, 0
95, 1224738080, 0.055691775, 0.6787818, -0.03894714, 0.7311887, -0.006364226, 0.0014485875, 0.043650627, 0
96, 1224754747, 0.05566047, 0.678784, -0.03891483, 0.73119074, 0.004525685, 0.0013811983, 0.05158806, 0
97, 1224771414, 0.05551612, 0.6787867, -0.038785677, 0.73120606, -0.0024997252, 0.0055036712, 0.046598434, 0
98, 1224788081, 0.05542482, 0.67879164, -0.03870199, 0.73121285, 9.769E-4, -0.008578092, 0.060136795, 0
99, 1224804748, 0.055594485, 0.678783, -0.038868364, 0.7311991, 0.0055415113, -2.5290492E-4, 0.038311005, 0
100, 1224821415, 0.055593155, 0.67877513, -0.03887536, 0.7312062, -0.008729323, 0.0063939234, 0.05795479, 0
101, 1224838082, 0.055613853, 0.6787677, -0.038890176, 0.7312108, -0.007549819, 0.0027247625, 0.046876907, 0
102, 1224854749, 0.055494294, 0.6787773, -0.038752194, 0.7312183, 0.0070940377, -0.005034238, 0.04593754, 0
103, 1224871416, 0.055491295, 0.67877215, -0.038709436, 0.73122555, -0.002065855, 0.008918279, 0.052152634, 0
104, 1224888083, 0.055587854, 0.6787538, -0.038736377, 0.73123384, -6.2528974E-4, 0.007821947, 0.043557167, 0
105, 1224904750, 0.055749018, 0.67871785, -0.038849328, 0.73124886, 0.0075545493, -0.007302839, 0.04829979, 0
106, 1224921417, 0.055740986, 0.67869174, -0.03883713, 0.73127437, -0.0028563244, 0.0041039214, 0.045682907, 0
107, 1224938084, 0.055778414, 0.67869025, -0.038884334, 0.73127043, 0.016722323, 0.0021524576, 0.07673454, 0
108, 1224954751, 0.055847242, 0.6786951, -0.038951285, 0.73125714, 0.0015120442, -0.0052993805, 0.034377098, 0
109, 1224971418, 0.05585594, 0.6787074, -0.03895524, 0.73124474, -0.013535323, 0.008164397, 0.044670105, 0
110, 1224988085, 0.055910345, 0.6787145, -0.03899868, 0.73123175, -0.007794293, 0.004697935, 0.05206299, 0
111, 1225004752, 0.055899546, 0.67871964, -0.038978364, 0.7312288, 0.0061092693, 0.0028132738, 0.044833183, 0
112, 1225021419, 0.055962868, 0.6787223, -0.039024428, 0.73121905, 0.004838434, -0.0031983028, 0.050430298, 0
113, 1225038086, 0.05589288, 0.67872524, -0.03895305, 0.73122543, 0.008256109, -0.005354057, 0.039736748, 0
114, 1225054753, 0.05590632, 0.6787258, -0.038986135, 0.7312222, 0.011300127, -1.20697E-5, 0.042586327, 0
115, 1225071420, 0.055822335, 0.6787282, -0.038919855, 0.7312299, 0.011232721, -0.0076756584, 0.046740532, 0
116, 1225088087, 0.055819232, 0.6787241, -0.038940135, 0.7312328, 0.006215728, 0.0016192675, 0.040255547, 0
117, 1225104754, 0.055819858, 0.67872095, -0.038941536, 0.7312357, 0.003524967, 0.013520466, 0.05130577, 0
118, 1225121421, 0.055784974, 0.67871827, -0.03892687, 0.7312415, -8.107042E-4, 0.017928645, 0.03732109, 0
119, 1225138088, 0.055883188, 0.67871904, -0.039025683, 0.7312281, -0.001454996, 0.0055171656, 0.04613495, 0
120, 1225154755, 0.055867743, 0.6787228, -0.039015025, 0.73122644, -0.014616109, 0.010340938, 0.046292305, 0
121, 1225171422, 0.05584868, 0.6787187, -0.038985368, 0.73123336, 0.0126483515, -9.850216E-4, 0.051924706, 0
122, 1225188089, 0.055932477, 0.67871565, -0.039066337, 0.7312255, 0.002490481, -2.5181528E-4, 0.037615776, 0
123, 1225204756, 0.055935454, 0.67871225, -0.039073996, 0.7312279, -0.011873392, 0.009978009, 0.046863556, 0
124, 1225221423, 0.055798803, 0.6787222, -0.038948577, 0.7312357, 0.007240032, -6.9054327E-4, 0.049088478, 0
125, 1225238090, 0.055865422, 0.67872417, -0.03901788, 0.7312252, 0.0043355823, 0.0061757187, 0.041614532, 0
126, 1225254757, 0.056015287, 0.6787169, -0.039168574, 0.7312124, 0.009528384, 0.013802065, 0.042019844, 0
127, 1225271424, 0.056004334, 0.67871296, -0.039157096, 0.73121744, -0.014785057, 0.014858163, 0.047506332, 0
128, 1225288091, 0.056015566, 0.678708, -0.039173402, 0.7312205, -0.005676527, -9.017351E-4, 0.03268051, 0
129, 1225304758, 0.055998433, 0.6787034, -0.039165244, 0.7312262, -0.010954665, -1.9345047E-4, 0.05022812, 0
130, 1225321425, 0.0558593, 0.67870367, -0.039059397, 0.7312424, -0.0013643336, -0.006500986, 0.037701607, 0
131, 1225338092, 0.055881754, 0.6787042, -0.03909584, 0.7312383, -1.0888748E-4, -5.051393E-5, 0.04171753, 0
132, 1225354759, 0.055808384, 0.6787113, -0.0390445, 0.73124003, -0.002255347, 0.006591844, 0.05404854, 0
133, 1225371426, 0.055777516, 0.6787059, -0.03901124, 0.73124915, 0.0027658017, 1.32627E-4, 0.041194916, 0
134, 1225388093, 0.055546764, 0.6787175, -0.038807295, 0.73126686, -0.0039623957, -0.003938885, 0.049674988, 0
135, 1225404760, 0.05555719, 0.6787232, -0.038789455, 0.7312617, 0.0048468905, 0.0014401778, 0.051834106, 0
136, 1225421427, 0.05556944, 0.67872906, -0.038789377, 0.73125535, -0.015098228, 0.008533389, 0.04577923, 0
137, 1225438094, 0.055624902, 0.6787339, -0.03881951, 0.73124504, -0.012284147, -0.008407915, 0.048828125, 0
138, 1225454761, 0.055521704, 0.67874056, -0.038701117, 0.73125297, 0.0105448, -0.006005095, 0.0572443, 0
139, 1225471428, 0.05534178, 0.6787484, -0.03852869, 0.7312684, 0.002413692, -0.0053543923, 0.049137115, 0
140, 1225488095, 0.055405617, 0.6787453, -0.038582873, 0.7312635, 0.01692548, 0.008237542, 0.026882172, 0
141, 1225504762, 0.055406485, 0.6787492, -0.038572796, 0.7312604, -0.0080966065, -8.628159E-4, 0.053603172, 0
142, 1225521429, 0.055164076, 0.678771, -0.03833808, 0.73127085, -0.005302951, 0.006040158, 0.055226326, 0
143, 1225538096, 0.055085637, 0.6787777, -0.038246404, 0.7312754, 0.009468204, 0.013256665, 0.044421196, 0
144, 1225554763, 0.055079795, 0.6787854, -0.03824, 0.73126906, 0.008196307, 0.004766805, 0.044950485, 0
145, 1225571430, 0.055280373, 0.6787705, -0.03841798, 0.7312584, 0.014236008, -1.2653627E-4, 0.043803215, 0
146, 1225588097, 0.055089276, 0.6787871, -0.038221553, 0.73126775, -0.005813237, -0.005986487, 0.03813362, 0
147, 1225604764, 0.05513137, 0.6787899, -0.0382305, 0.7312614, -0.0026698622, 0.002530027, 0.050769806, 0
148, 1225621431, 0.05521278, 0.6787734, -0.038263973, 0.7312688, -0.0014137597, 0.0030170616, 0.04064274, 0
149, 1225638098, 0.055275094, 0.67875767, -0.038278405, 0.731278, -0.013652073, -0.009519249, 0.049746513, 0
150, 1225654765, 0.055327687, 0.6787378, -0.03834187, 0.7312892, 0.0153178405, -0.0017326445, 0.042671204, 0
151, 1225671432, 0.055262454, 0.67873585, -0.038303692, 0.73129785, 0.015021211, -0.0012159384, 0.035970688, 0
152, 1225688099, 0.055239584, 0.67873704, -0.03828416, 0.7312995, -0.0025861165, 0.01336979, 0.049300194, 0
153, 1225704766, 0.055206038, 0.6787457, -0.038241953, 0.7312962, 0.012750307, -0.0066481135, 0.04313469, 0
154, 1225721433, 0.055361405, 0.67873704, -0.03838308, 0.7312852, 0.0042808754, 0.011097502, 0.039992332, 0
155, 1225738100, 0.055381518, 0.67873716, -0.038393293, 0.73128295, 0.0073934156, 0.0010953811, 0.030077934, 0
156, 1225754767, 0.055410907, 0.6787445, -0.038423754, 0.7312723, 0.0039200922, 0.004896107, 0.0538826, 0
157, 1225771434, 0.055344857, 0.67874247, -0.03837283, 0.73128194, -0.006241159, 0.016345223, 0.043400764, 0
158, 1225788101, 0.0551712, 0.67875594, -0.038219973, 0.7312906, 0.0014984658, 0.009892879, 0.040385246, 0
159, 1225804768, 0.05518267, 0.6787514, -0.038247447, 0.7312925, 0.0063800113, -0.0016864053, 0.038355827, 0
160, 1225821435, 0.055144966, 0.6787676, -0.038223166, 0.7312815, 0.020132532, 0.0012024718, 0.03135681, 0
161, 1225838102, 0.05515161, 0.67877525, -0.03822194, 0.73127395, 0.008630707, -0.0077576875, 0.05303955, 0
162, 1225854769, 0.055176795, 0.6787752, -0.038220376, 0.73127216, -0.006896506, 0.0056991056, 0.048597336, 0
163, 1225871436, 0.05521082, 0.6787569, -0.038248114, 0.73128515, -0.012938444, -0.0044408394, 0.057349205, 0
164, 1225888103, 0.055223588, 0.6787485, -0.038265184, 0.7312911, 0.0054913815, -0.010745553, 0.055552483, 0
165, 1225904770, 0.055112727, 0.6787451, -0.038172018, 0.73130745, 0.007974256, -0.004847912, 0.040062904, 0
166, 1225921437, 0.05508306, 0.6787365, -0.038148712, 0.73131883, 0.021655167, -0.00827797, 0.044140816, 0
167, 1225938104, 0.05492969, 0.6787486, -0.038022935, 0.7313257, 0.020377045, 0.007957452, 0.056394577, 0
168, 1225954771, 0.054932915, 0.6787453, -0.038036752, 0.7313279, 0.010552672, -0.0010914697, 0.039058685, 0
169, 1225971438, 0.054924402, 0.67874783, -0.038026474, 0.73132676, -0.0015390281, 0.011015305, 0.037100792, 0
170, 1225988105, 0.054948654, 0.678747, -0.038065754, 0.73132354, -0.007373619, -0.004930752, 0.050979614, 0
171, 1226004772, 0.054876115, 0.6787508, -0.038018614, 0.731328, -0.008035882, -0.00698925, 0.045505524, 0
172, 1226021439, 0.054901637, 0.6787497, -0.038060836, 0.731325, 0.009658879, 0.011577832, 0.04169655, 0
173, 1226038106, 0.054893985, 0.6787367, -0.038065962, 0.7313373, 0.0021775854, 0.004766861, 0.046676636, 0
174, 1226054773, 0.05484608, 0.678728, -0.038040895, 0.73135036, 0.013989313, -0.0027292888, 0.054953575, 0
175, 1226071440, 0.05479884, 0.67872417, -0.038024645, 0.7313582, 0.015055509, -0.0088822935, 0.0358696, 0
176, 1226088107, 0.05491917, 0.6787215, -0.0381654, 0.7313443, 0.010786131, 0.0031313887, 0.044672012, 0
177, 1226104774, 0.05485804, 0.6787283, -0.038128875, 0.7313445, -6.066788E-4, 0.005748949, 0.054208755, 0
178, 1226121441, 0.054850176, 0.6787324, -0.03813158, 0.7313411, 0.008719525, 0.005227968, 0.044603348, 0
179, 1226138108, 0.054803405, 0.6787314, -0.03808748, 0.7313477, 0.0010525906, 0.0011888095, 0.040159225, 0
180, 1226154775, 0.054811925, 0.6787303, -0.038092896, 0.73134804, -0.007832157, 0.004456625, 0.039502144, 0
181, 1226171442, 0.054761514, 0.6787288, -0.03803193, 0.7313563, -0.003417574, -0.007925965, 0.040747643, 0
182, 1226188109, 0.054808456, 0.67873406, -0.038076945, 0.73134553, 0.01113797, -0.0013826232, 0.04117489, 0
183, 1226204776, 0.054762162, 0.6787477, -0.038031258, 0.73133874, 0.010215344, -0.0012027232, 0.05493641, 0
184, 1226221443, 0.05468459, 0.6787677, -0.037965264, 0.7313294, 0.0053467685, 0.005630431, 0.045731544, 0
185, 1226238110, 0.0546392, 0.67877436, -0.037917133, 0.731329, 0.0052606426, 1.5916917E-4, 0.046289444, 0
186, 1226254777, 0.054774832, 0.6787656, -0.038032368, 0.7313211, 0.0012895196, 2.9534442E-4, 0.028571129, 0
187, 1226271444, 0.054748263, 0.6787654, -0.037997864, 0.7313251, -0.010469923, 0.0048290812, 0.055893898, 0
188, 1226288111, 0.054764118, 0.67877275, -0.03800071, 0.73131704, -0.0078761475, -0.0032329473, 0.058231354, 0
189, 1226304778, 0.054744467, 0.67878324, -0.037972294, 0.7313101, 0.003332374, 0.0068684975, 0.05852604, 0
190, 1226321445, 0.054764412, 0.67879105, -0.037979204, 0.7313011, 0.015041048, -0.0010132401, 0.04758358, 0
191, 1226338112, 0.05473916, 0.6787986, -0.037946083, 0.73129773, -0.001500804, 0.00246261, 0.05512142, 0
192, 1226354779, 0.054737665, 0.6788054, -0.037928347, 0.73129237, -0.008801589, 0.0025799263, 0.027420044, 0
193, 1226371446, 0.05486832, 0.6787968, -0.038037624, 0.73128486, -0.007883649, 0.004596935, 0.052340508, 0
194, 1226388113, 0.05486082, 0.67879784, -0.03803476, 0.73128456, 0.0010475388, 0.0051285326, 0.057300568, 0
195, 1226404780, 0.05482925, 0.6787987, -0.03802127, 0.7312869, 0.012120734, -0.009384611, 0.052708626, 0
196, 1226421447, 0.05480986, 0.67879325, -0.038018864, 0.73129344, -0.0020072581, 0.007561192, 0.039726257, 0
197, 1226438114, 0.054799747, 0.6787986, -0.038009502, 0.7312898, 0.008089238, -0.0042793793, 0.045437813, 0
198, 1226454781, 0.05473016, 0.6788003, -0.03793673, 0.7312972, 7.844379E-4, -0.007665153, 0.05152321, 0
199, 1226471448, 0.054731168, 0.67880553, -0.037922457, 0.73129296, 0.0081421565, 0.0047637317, 0.04793644, 0
200, 1226488115, 0.054735936, 0.67880625, -0.037918523, 0.73129225, 0.0016992101, 0.008730416, 0.040328026, 0
201, 1226504782, 0.05492136, 0.6788062, -0.0380972, 0.731269, 0.01857349, 0.0019975912, 0.04923439, 0
202, 1226521449, 0.05498584, 0.6788011, -0.038156506, 0.7312659, 0.006900538, -7.9956173E-4, 0.039141655, 0
203, 1226538116, 0.054865766, 0.6787983, -0.03805901, 0.7312826, 0.017770343, -7.801999E-4, 0.05290985, 0
204, 1226554783, 0.054965567, 0.6787936, -0.0381641, 0.73127395, 0.002515289, 0.0020721885, 0.048355103, 0
205, 1226571450, 0.054926995, 0.6787924, -0.038135566, 0.7312793, -0.006441919, 0.008091393, 0.04521942, 0
206, 1226588117, 0.054893557, 0.67879266, -0.03811615, 0.7312827, 0.010334331, -0.008953482, 0.046876907, 0
207, 1226604784, 0.05485043, 0.67879194, -0.03809146, 0.73128784, 0.0044901255, 2.0434672E-4, 0.048989296, 0
208, 1226621451, 0.054733645, 0.6787914, -0.03799866, 0.731302, -0.0041797883, 0.0037554367, 0.04911518, 0
209, 1226638118, 0.054761615, 0.67877305, -0.038026836, 0.73131555, 0.009831951, 0.0040743337, 0.03605652, 0
210, 1226654785, 0.0547936, 0.678764, -0.038065746, 0.73131955, 0.009216981, 0.0016914622, 0.04077053, 0
211, 1226671452, 0.05476071, 0.6787583, -0.03803372, 0.73132896, -0.0036898986, -1.9303137E-4, 0.049114227, 0
212, 1226688119, 0.054784775, 0.67874885, -0.03807522, 0.73133373, 0.0072748824, 0.009452865, 0.041921616, 0
213, 1226704786, 0.05478087, 0.6787421, -0.038079135, 0.73133993, -0.0043498836, 0.007098185, 0.061728477, 0
214, 1226721453, 0.054776706, 0.6787401, -0.03807872, 0.73134214, -0.015873315, 0.004232777, 0.050911903, 0
215, 1226738120, 0.054784913, 0.67873365, -0.038092274, 0.7313469, -0.0023924827, 0.010511004, 0.047707558, 0
216, 1226754787, 0.05486421, 0.67872363, -0.03816478, 0.73134655, 0.019412804, -0.011728815, 0.0356102, 0
217, 1226771454, 0.0549231, 0.6787215, -0.038223624, 0.731341, -0.0042728274, -0.0017509446, 0.0555048, 0
218, 1226788121, 0.054992754, 0.6787092, -0.038278524, 0.73134434, 0.007656684, 6.0083077E-4, 0.044838905, 0
219, 1226804788, 0.055076912, 0.67870224, -0.038373843, 0.73133945, -0.003917761, 2.615381E-4, 0.04787922, 0
220, 1226821455, 0.05505383, 0.6786994, -0.03838479, 0.73134327, 0.0013544955, -0.005640573, 0.045381546, 0
221, 1226838122, 0.055045903, 0.6786923, -0.038383216, 0.73135054, 0.0016448301, -7.455833E-4, 0.041119576, 0
222, 1226854789, 0.054981723, 0.6786907, -0.038310435, 0.73136073, -0.011877252, 1.4072935E-4, 0.04379177, 0
223, 1226871456, 0.0548052, 0.67869544, -0.038144186, 0.73137826, -0.01360355, -0.0016644172, 0.047403336, 0
224, 1226888123, 0.05473975, 0.67869395, -0.038068444, 0.7313884, -0.0014267967, 0.004564218, 0.046319008, 0
225, 1226904790, 0.05478895, 0.67868483, -0.038103916, 0.7313913, -7.604644E-4, 0.0126717035, 0.0378294, 0
226, 1226921457, 0.05466012, 0.6786945, -0.03797598, 0.7313986, -0.003479814, 0.0078366995, 0.031208038, 0
227, 1226938124, 0.054747865, 0.67869586, -0.038054965, 0.7313867, -0.0019101364, -0.0023992998, 0.024130821, 0
228, 1226954791, 0.05478648, 0.6786958, -0.03810087, 0.7313815, 0.008978612, 0.0073413667, 0.05118656, 0
229, 1226971458, 0.05481603, 0.6786975, -0.038117286, 0.73137677, -0.0033961309, -0.0075783744, 0.026936531, 0
230, 1226988125, 0.054753922, 0.6786965, -0.038062166, 0.73138523, 0.008189546, -0.0038386674, 0.035629272, 0
231, 1227004792, 0.054737903, 0.6786949, -0.038040847, 0.7313891, -0.016515115, 0.002013209, 0.036994934, 0
232, 1227021459, 0.054846402, 0.6786943, -0.03812641, 0.731377, -0.008028296, 0.0039358954, 0.049466133, 0
233, 1227038126, 0.0548931, 0.6786941, -0.038163137, 0.7313717, 1.17222065E-4, 0.010890194, 0.061030388, 0
234, 1227054793, 0.054913525, 0.6787043, -0.038164705, 0.7313607, 0.007112699, -0.008384977, 0.04771614, 0
235, 1227071460, 0.05491139, 0.67871237, -0.03815498, 0.73135376, 0.0017154096, 0.004591794, 0.0423975, 0
236, 1227088127, 0.054901708, 0.67871696, -0.038131204, 0.7313515, -0.007320601, -0.007051415, 0.05908203, 0
237, 1227104794, 0.054911584, 0.6787079, -0.038123317, 0.73135966, -0.008378867, -0.005216345, 0.041805267, 0
238, 1227121461, 0.054909572, 0.67870086, -0.038132533, 0.7313659, 0.0013501509, -9.0927863E-4, 0.043406487, 0
239, 1227138128, 0.05494343, 0.67868835, -0.03819171, 0.73137194, 0.011056931, -0.003173912, 0.05181694, 0
240, 1227154795, 0.054921895, 0.67868054, -0.038199756, 0.7313803, 0.003931724, -0.0014502638, 0.05258751, 0
241, 1227171462, 0.054893732, 0.6786658, -0.038194355, 0.7313963, 0.0014799351, 0.0058105546, 0.036058426, 0
242, 1227188129, 0.054970134, 0.6786533, -0.038274053, 0.73139805, -0.004683714, 0.011799528, 0.048819542, 0
243, 1227204796, 0.05509228, 0.67865044, -0.038364768, 0.7313868, -0.006624954, 0.009253129, 0.058618546, 0
244, 1227221463, 0.054928843, 0.67866445, -0.03818518, 0.7313955, -0.0047206357, -0.0017455245, 0.04475403, 0
245, 1227238130, 0.054940425, 0.6786605, -0.0381861, 0.7313982, -0.0122841345, -0.007446027, 0.048672676, 0
246, 1227254797, 0.055007316, 0.6786584, -0.03824654, 0.7313919, -0.0026660205, -0.015714135, 0.055131912, 0
247, 1227271464, 0.05506553, 0.6786475, -0.03830162, 0.73139465, -0.011538111, -0.01143889, 0.0513134, 0
248, 1227288131, 0.055091534, 0.6786389, -0.038329374, 0.7313993, 0.002853527, 0.0036839126, 0.05673504, 0
249, 1227304798, 0.055062655, 0.6786404, -0.03832082, 0.73140055, -0.0035148147, 0.0023477243, 0.037712097, 0
250, 1227321465, 0.055159114, 0.6786441, -0.03841811, 0.7313848, 0.0058354503, 0.0071404567, 0.04613495, 0
251, 1227338132, 0.055191807, 0.6786433, -0.0384571, 0.7313811, 0.011609614, -0.0024000262, 0.04461193, 0
252, 1227354799, 0.055142175, 0.67864484, -0.038392212, 0.73138684, 0.0049634944, -2.7290932E-4, 0.047558784, 0
253, 1227371466, 0.0551886, 0.6786432, -0.038414966, 0.73138356, -0.009726866, -0.0069214976, 0.047384262, 0
254, 1227388133, 0.055363387, 0.6786293, -0.038583834, 0.7313745, -0.0034486635, -7.42063E-5, 0.043865204, 0
255, 1227404800, 0.055373855, 0.67863554, -0.03860357, 0.7313668, 0.011723267, -0.008754192, 0.050890923, 0
256, 1227421467, 0.05530688, 0.6786377, -0.0385396, 0.7313732, -1.4835672E-5, 0.0060737133, 0.042736053, 0
257, 1227438134, 0.055418093, 0.67863137, -0.038646903, 0.7313649, -0.0013733421, -0.010449817, 0.042508125, 0
258, 1227454801, 0.055401202, 0.6786384, -0.03864869, 0.73135966, 0.0058456827, -0.0011273156, 0.046720505, 0
259, 1227471468, 0.055409323, 0.6786384, -0.038675714, 0.7313577, -0.007913669, 0.005236294, 0.054735184, 0
260, 1227488135, 0.05537649, 0.67864066, -0.038648307, 0.7313594, -0.0013288683, 0.01656446, 0.044641495, 0
261, 1227504802, 0.055367634, 0.67863566, -0.038646992, 0.7313648, -0.0056523285, -0.002070149, 0.049960136, 0
262, 1227521469, 0.05517337, 0.67865247, -0.038461972, 0.73137367, -0.0016662559, 0.0049747, 0.033809662, 0
263, 1227538136, 0.05514223, 0.67866004, -0.03843943, 0.73137015, -0.0031457492, -0.01478826, 0.048405647, 0
264, 1227554803, 0.055080183, 0.678663, -0.038371187, 0.73137575, 0.009466713, 4.6018523E-4, 0.043764114, 0
265, 1227571470, 0.055106208, 0.67865396, -0.038390685, 0.7313812, 0.0018063548, -0.003534103, 0.042502403, 0
266, 1227588137, 0.05507941, 0.6786516, -0.03836476, 0.73138666, 0.006212934, -0.006854388, 0.042313576, 0
267, 1227604804, 0.055033952, 0.6786525, -0.038325712, 0.73139125, -0.010484389, 0.006329384, 0.037320137, 0
268, 1227621471, 0.05501754, 0.6786555, -0.03831689, 0.7313903, 0.0087547, 2.7014336E-4, 0.053471565, 0
269, 1227638138, 0.055027116, 0.67866206, -0.038320135, 0.73138326, 0.013679419, 0.005429968, 0.048155785, 0
270, 1227654805, 0.055117205, 0.678674, -0.03837857, 0.73136234, 0.012873069, 0.0100219855, 0.047670364, 0
271, 1227671472, 0.0551041, 0.6786838, -0.03834049, 0.73135626, 0.0075749136, -3.2127195E-4, 0.045973778, 0
272, 1227688139, 0.055133227, 0.67868686, -0.038354043, 0.7313505, -0.012348076, -0.008328763, 0.04884243, 0
273, 1227704806, 0.055069663, 0.6786957, -0.038273185, 0.7313513, 0.0080976, -0.0035363662, 0.043320656, 0
274, 1227721473, 0.055005006, 0.67869633, -0.038203944, 0.7313592, 0.0013181694, -0.012990462, 0.045345306, 0
275, 1227738140, 0.05508113, 0.6786945, -0.038279608, 0.7313511, 0.010369397, -0.010271985, 0.0352602, 0
276, 1227754807, 0.055115834, 0.6786866, -0.038326703, 0.7313534, 2.5398232E-4, -0.0031400218, 0.05216217, 0
277, 1227771474, 0.05517338, 0.6786768, -0.038397465, 0.7313545, 0.00790767, -9.6842577E-4, 0.0541811, 0
278, 1227788141, 0.055165514, 0.67867905, -0.03838862, 0.73135346, 0.018465664, 0.002048077, 0.048157692, 0
279, 1227804808, 0.055150937, 0.67868274, -0.0383856, 0.7313513, -0.003441923, -0.0028810261, 0.043385506, 0
280, 1227821475, 0.055097956, 0.67868286, -0.038333807, 0.73135793, -0.0069654826, -0.0016612042, 0.049545288, 0
281, 1227838142, 0.055125847, 0.67868453, -0.038351502, 0.73135334, -0.011345673, -0.014775072, 0.048235893, 0
282, 1227854809, 0.055049565, 0.67867935, -0.03827026, 0.7313682, -0.002802987, -0.010801068, 0.043714523, 0
283, 1227871476, 0.055007573, 0.67867917, -0.03822207, 0.731374, -0.003377995, -0.01095043, 0.03187275, 0
284, 1227888143, 0.055014364, 0.67866826, -0.038230862, 0.73138314, 0.011411014, -0.009582448, 0.027809143, 0
285, 1227904810, 0.05489595, 0.67866963, -0.03814074, 0.7313955, 0.007786804, 0.002810815, 0.049755096, 0
286, 1227921477, 0.054930832, 0.6786624, -0.038183335, 0.7313972, 0.0047822795, -4.5554736E-4, 0.04426098, 0
287, 1227938144, 0.05492823, 0.6786559, -0.038197696, 0.7314027, -0.002282132, 0.008046746, 0.042407036, 0
288, 1227954811, 0.05489863, 0.6786579, -0.038179327, 0.731404, -0.002771269, 5.900742E-4, 0.043660164, 0
289, 1227971478, 0.05487142, 0.6786605, -0.038152754, 0.73140514, 0.010400976, -0.012078584, 0.04484749, 0
290, 1227988145, 0.054894336, 0.67866075, -0.03817533, 0.731402, 0.0024351317, -0.003930894, 0.031848907, 0
291, 1228004812, 0.05492347, 0.6786609, -0.038190752, 0.7313988, -0.0068363273, 0.0016073096, 0.044487953, 0
292, 1228021479, 0.054864448, 0.67865866, -0.03813605, 0.7314082, -0.0069768904, 0.0047278577, 0.048067093, 0
293, 1228038146, 0.054865874, 0.67866564, -0.038145516, 0.7314012, 0.0049127447, -0.0027409953, 0.04472351, 0
294, 1228054813, 0.054845635, 0.67866474, -0.038138352, 0.7314039, 0.0021282975, 0.010449845, 0.037424088, 0
295, 1228071480, 0.054820087, 0.67865777, -0.038119543, 0.73141325, -0.009282978, 0.0052915574, 0.031476974, 0
296, 1228088147, 0.05481678, 0.678656, -0.038118325, 0.7314152, -7.4446754E-4, 0.0035981394, 0.051283836, 0
297, 1228104814, 0.05481655, 0.6786532, -0.0381222, 0.7314177, 0.0016531681, 6.5059034E-4, 0.033729553, 0
298, 1228121481, 0.05482533, 0.6786523, -0.038123492, 0.7314177, -0.001700167, -0.00286281, 0.04884243, 0
299, 1228138148, 0.054805722, 0.6786546, -0.038096204, 0.7314185, 0.0036847962, -0.01206942, 0.04462242, 0
300, 1228154815, 0.0547683, 0.67865855, -0.038063366, 0.7314194, -0.0075583174, -0.005402364, 0.059663773, 0
301, 1228171482, 0.05476252, 0.6786592, -0.038058467, 0.73141944, 0.0071212556, -0.0074309395, 0.047369957, 0
302, 1228188149, 0.05475372, 0.6786494, -0.03805094, 0.7314296, 0.01066359, 0.0015017556, 0.045830727, 0
303, 1228204816, 0.05474184, 0.6786483, -0.03805673, 0.7314312, 0.009268467, -0.012866998, 0.047089577, 0
304, 1228221483, 0.054736003, 0.6786491, -0.038055748, 0.7314309, -0.0018127582, 4.6627596E-4, 0.054031372, 0
305, 1228238150, 0.054715004, 0.6786504, -0.038034976, 0.73143244, 0.010231208, 0.004732272, 0.0630188, 0
306, 1228254817, 0.05471363, 0.67864877, -0.03802995, 0.73143417, 0.0074080243, 0.00852769, 0.04847145, 0
307, 1228271484, 0.05470196, 0.67865014, -0.038024127, 0.73143405, -0.004352733, -0.006789709, 0.03676033, 0
308, 1228288151, 0.05469571, 0.6786483, -0.03802939, 0.7314361, -0.01650939, 0.0011407263, 0.024324417, 0
309, 1228304818, 0.054686204, 0.6786455, -0.038028747, 0.7314394, -0.015881691, -0.0051042815, 0.054125786, 0
310, 1228321485, 0.054691024, 0.6786413, -0.038047243, 0.73144203, -0.011592021, -0.0062250034, 0.04833603, 0
311, 1228338152, 0.054665904, 0.6786315, -0.038021855, 0.7314543, 0.004547436, -0.00902171, 0.04919815, 0
312, 1228354819, 0.054609478, 0.6786339, -0.037976827, 0.7314586, 0.009346348, -0.011337583, 0.038996696, 0
313, 1228371486, 0.054621786, 0.67864424, -0.037973266, 0.7314483, 0.020515824, 0.014688377, 0.04739666, 0
314, 1228388153, 0.054605912, 0.67865777, -0.03794718, 0.7314383, -0.010815053, 0.0039234627, 0.038555145, 0
315, 1228404820, 0.05468951, 0.6786523, -0.038005423, 0.731434, -0.005224287, -0.011364181, 0.041425705, 0
316, 1228421487, 0.05469568, 0.6786487, -0.037986707, 0.7314378, 0.0025904628, -0.014879257, 0.038176537, 0
317, 1228438154, 0.05475917, 0.67865294, -0.0380336, 0.7314268, 0.0016306317, 1.6400263E-4, 0.04307747, 0
318, 1228454821, 0.05476504, 0.67865586, -0.038044102, 0.7314231, 0.0036535515, -0.013037483, 0.04472351, 0
319, 1228471488, 0.054741763, 0.6786587, -0.038014717, 0.7314237, 0.004642373, -0.0034933956, 0.040867805, 0
320, 1228488155, 0.054708328, 0.6786676, -0.037976045, 0.73142, 1.8942723E-4, 0.004022898, 0.034625053, 0
321, 1228504822, 0.05471108, 0.6786684, -0.037982173, 0.7314187, -0.0031129906, 0.013301005, 0.04218483, 0
322, 1228521489, 0.05467477, 0.6786671, -0.03795742, 0.7314239, -0.014244732, -0.0022241494, 0.05256653, 0
323, 1228538156, 0.054691873, 0.678664, -0.037954424, 0.73142564, 0.011763076, 0.00866786, 0.058933258, 0
324, 1228554823, 0.05462496, 0.6786653, -0.03788331, 0.7314331, 0.0040663485, 0.0020347224, 0.03748703, 0
325, 1228571490, 0.054596826, 0.67866826, -0.037840206, 0.7314346, 2.9676408E-4, -0.01017227, 0.05171871, 0
326, 1228588157, 0.054632515, 0.67866176, -0.037873626, 0.7314364, -0.0071975677, 0.0019244745, 0.049412727, 0
327, 1228604824, 0.054647353, 0.67866105, -0.037887502, 0.7314353, 0.00967582, -5.487243E-4, 0.050712585, 0
328, 1228621491, 0.05458583, 0.67866844, -0.03783663, 0.73143554, -0.0033476688, -0.0015230452, 0.04307556, 0
329, 1228638158, 0.054593995, 0.67867327, -0.037842758, 0.7314302, -0.0018810431, 0.0074649695, 0.03985119, 0
330, 1228654825, 0.054667927, 0.67866504, -0.037928667, 0.7314279, 0.0025586768, -0.0017010453, 0.045809746, 0
331, 1228671492, 0.05465039, 0.6786574, -0.03791179, 0.73143715, 0.014638661, 0.0011622674, 0.03620243, 0
332, 1228688159, 0.05471709, 0.67865086, -0.037980463, 0.73143464, 0.016791528, 0.013197993, 0.040675163, 0
333, 1228704826, 0.054671798, 0.6786617, -0.037952673, 0.7314294, -0.0046271128, 0.0029486946, 0.04615307, 0
334, 1228721493, 0.054627847, 0.6786591, -0.037922755, 0.7314367, -0.008167072, 0.009126984, 0.04571438, 0
335, 1228738160, 0.054674327, 0.6786613, -0.037979383, 0.73142815, -0.0058226837, -0.0033100871, 0.057832718, 0
336, 1228754827, 0.05468321, 0.67866224, -0.037994955, 0.7314257, 0.010876453, -2.1339899E-4, 0.039889336, 0
337, 1228771494, 0.054687366, 0.67867076, -0.03798947, 0.7314179, -0.0011243208, -0.0031198496, 0.04859066, 0
338, 1228788161, 0.05470141, 0.6786659, -0.037990794, 0.7314214, -0.030833187, -0.001388239, 0.046245575, 0
339, 1228804828, 0.05473484, 0.6786527, -0.038020995, 0.7314295, -0.008145404, 0.003174834, 0.048072815, 0
340, 1228821495, 0.054740127, 0.6786491, -0.038017668, 0.73143256, 0.017974138, -0.0027042832, 0.056653976, 0
341, 1228838162, 0.05472425, 0.678649, -0.03799925, 0.7314348, 0.0064112036, 0.0033948824, 0.05040741, 0
342, 1228854829, 0.05471621, 0.67865765, -0.037984464, 0.73142815, -0.002833486, -0.0055339294, 0.04885006, 0
343, 1228871496, 0.054755524, 0.67866004, -0.038005404, 0.73142195, 0.007960078, -0.00890931, 0.046880722, 0
344, 1228888163, 0.05473837, 0.67866343, -0.0379815, 0.73142123, 0.0028715425, -0.0056021567, 0.039419174, 0
345, 1228904830, 0.0547581, 0.6786612, -0.037983377, 0.7314218, -0.0037328496, 0.007378163, 0.03861332, 0
346, 1228921497, 0.05478344, 0.67866737, -0.037982684, 0.7314142, 0.017906718, -0.0022269993, 0.048959732, 0
347, 1228938164, 0.054809228, 0.67866856, -0.03800218, 0.7314102, 0.00808859, 0.004508061, 0.029255867, 0
348, 1228954831, 0.05484172, 0.6786652, -0.03801483, 0.73141015, 0.002646032, -0.014487355, 0.045184135, 0
349, 1228971498, 0.054842785, 0.67866254, -0.03801918, 0.7314124, -0.0023920618, -0.0029362896, 0.054789543, 0
350, 1228988165, 0.05483701, 0.6786674, -0.038018484, 0.7314083, 0.004824536, -0.0036700268, 0.06237316, 0
351, 1229004832, 0.054833136, 0.6786628, -0.038020182, 0.73141277, -3.6401354E-4, 0.006102686, 0.04757881, 0
352, 1229021499, 0.054812323, 0.67866284, -0.03801462, 0.7314146, -0.0055292407, -8.2336584E-5, 0.046014786, 0
353, 1229038166, 0.054770954, 0.6786662, -0.037976354, 0.73141664, -9.754629E-4, -2.1999262E-4, 0.055487633, 0
354, 1229054833, 0.054771036, 0.67865777, -0.03797114, 0.7314247, -6.00375E-4, -0.001181238, 0.035946846, 0
355, 1229071500, 0.054782234, 0.6786534, -0.037989, 0.73142684, 0.0033237948, -4.063745E-4, 0.046643257, 0
356, 1229088167, 0.05477358, 0.6786419, -0.038006067, 0.7314373, 3.0572555E-4, -0.0047445935, 0.053435326, 0
357, 1229104834, 0.0547883, 0.6786347, -0.038019888, 0.7314422, 0.0030937842, 0.0037734853, 0.04406166, 0
358, 1229121501, 0.05476802, 0.67863464, -0.03800821, 0.7314444, 0.0058396826, -0.005698882, 0.05594635, 0
359, 1229138168, 0.054769453, 0.6786379, -0.038011253, 0.7314411, -0.0048005693, -5.788147E-4, 0.032141685, 0
360, 1229154835, 0.054656148, 0.67864114, -0.037904646, 0.73145217, 0.0037924962, -0.0026817922, 0.04990673, 0
361, 1229171502, 0.05471992, 0.67862797, -0.03797744, 0.7314559, -0.005124607, 6.07145E-4, 0.05831337, 0
362, 1229188169, 0.054700483, 0.6786211, -0.03798356, 0.7314633, 0.0026042403, 0.003357444, 0.037487984, 0
363, 1229204836, 0.054721378, 0.678615, -0.03802556, 0.73146534, 0.014378118, 9.826467E-4, 0.040610313, 0
364, 1229221503, 0.054720312, 0.6786146, -0.038027264, 0.7314656, 0.008727432, -0.0025362296, 0.042386055, 0
365, 1229238170, 0.05471461, 0.6786146, -0.038022876, 0.7314662, -0.0042447364, 0.0031527062, 0.035261154, 0
366, 1229254837, 0.05469723, 0.6786226, -0.038009647, 0.7314607, -0.006923595, 3.2725092E-4, 0.040224075, 0
367, 1229271504, 0.054666128, 0.67861956, -0.037985694, 0.7314671, 0.0034289507, 0.002418494, 0.050883293, 0
368, 1229288171, 0.054634105, 0.67861414, -0.037965752, 0.7314756, 0.00402448, 4.04307E-4, 0.042518616, 0
369, 1229304838, 0.05464276, 0.6786146, -0.0379948, 0.73147315, 0.013114252, -0.0058854315, 0.032011986, 0
370, 1229321505, 0.05463188, 0.67861795, -0.03800354, 0.7314702, 0.022064274, -0.0054745865, 0.054130554, 0
371, 1229338172, 0.05457732, 0.67861706, -0.037946932, 0.73147815, 0.013955169, 0.0017111035, 0.040244102, 0
372, 1229354839, 0.054577313, 0.6786203, -0.037955694, 0.7314747, 0.003318179, 0.0077608726, 0.03734684, 0
373, 1229371506, 0.05458678, 0.67861336, -0.037963964, 0.73148006, -0.01063893, -0.006460195, 0.040890694, 0
374, 1229388173, 0.05449026, 0.6786177, -0.03787015, 0.73148793, 2.2686391E-4, -0.0015036555, 0.043509483, 0
375, 1229404840, 0.054524943, 0.6786144, -0.03789514, 0.7314873, -0.0017737447, -9.2791405E-4, 0.046517372, 0
376, 1229421507, 0.05449654, 0.6786192, -0.03786782, 0.7314864, 0.0037460073, -0.005906805, 0.039419174, 0
377, 1229438174, 0.054458342, 0.67862254, -0.037815575, 0.7314887, -0.006583323, 0.008213766, 0.03708744, 0
378, 1229454841, 0.05440009, 0.6786295, -0.037757292, 0.7314896, 0.014854442, -0.005560835, 0.05104828, 0
379, 1229471508, 0.054444574, 0.67862546, -0.037821226, 0.73148674, -7.832243E-4, -0.010635696, 0.051454544, 0
380, 1229488175, 0.05446497, 0.678629, -0.0378304, 0.73148155, -0.005775678, -0.011806765, 0.044960976, 0
381, 1229504842, 0.054498654, 0.678636, -0.037849575, 0.7314715, -0.00597759, -1.9764133E-4, 0.03435135, 0
382, 1229521509, 0.05451017, 0.678629, -0.03786746, 0.7314761, -0.009482061, 0.006187621, 0.057294846, 0
383, 1229538176, 0.05447393, 0.6786228, -0.037831336, 0.7314865, -0.0079141725, -0.002496947, 0.04311371, 0
384, 1229554843, 0.054480076, 0.67862743, -0.03783857, 0.7314814, -0.0036746908, -0.0018667243, 0.046375275, 0
385, 1229571510, 0.054483645, 0.6786252, -0.03783363, 0.7314834, 0.0033565778, -0.0031028627, 0.049429893, 0
386, 1229588177, 0.054516748, 0.6786282, -0.03785352, 0.73147714, -0.012441576, -0.0045663696, 0.049429893, 0
387, 1229604844, 0.05451859, 0.6786318, -0.03784349, 0.7314742, -0.018174682, 0.013960899, 0.039610863, 0
388, 1229621511, 0.05452572, 0.6786296, -0.037842523, 0.7314759, -0.015074374, 0.002479988, 0.047041893, 0
389, 1229638178, 0.054525338, 0.6786218, -0.037831876, 0.7314835, 0.004067398, -0.004761692, 0.03273201, 0
390, 1229654845, 0.054503817, 0.6786118, -0.037823338, 0.73149484, -0.0034655072, 2.1549442E-4, 0.039117813, 0
391, 1229671512, 0.05451453, 0.67861074, -0.03783841, 0.7314943, 0.0016450012, -0.0041212994, 0.035921097, 0
392, 1229688179, 0.05451635, 0.6786055, -0.037849873, 0.73149854, -0.005271022, -0.0037701607, 0.039853096, 0
393, 1229704846, 0.05450746, 0.6785957, -0.03785103, 0.7315082, -0.00468732, -0.008942278, 0.02628231, 0
394, 1229721513, 0.05450976, 0.67858773, -0.03785303, 0.7315152, 0.0053700805, -0.0047844346, 0.04247856, 0
395, 1229738180, 0.054492768, 0.6785782, -0.037849717, 0.7315255, -0.013836714, 0.005301001, 0.054480553, 0
396, 1229754847, 0.05448749, 0.6785464, -0.037873633, 0.7315542, -0.009714035, -0.002506167, 0.052589417, 0
397, 1229771514, 0.05449906, 0.67853117, -0.0379084, 0.73156565, 0.0108271, -0.0017834937, 0.05094719, 0
398, 1229788181, 0.05447345, 0.6785196, -0.037898112, 0.7315789, 0.0036313399, -2.373987E-4, 0.0394907, 0
399, 1229804848, 0.054448284, 0.67849535, -0.037904434, 0.73160297, -7.197292E-5, 0.0034537222, 0.05960369, 0
400, 1229821515, 0.054473076, 0.67847365, -0.037959438, 0.7316183, -0.0090660835, -0.0077936733, 0.050585747, 0
401, 1229838182, 0.05447533, 0.67844856, -0.0379956, 0.73163956, 0.01053958, 0.0027235611, 0.04853344, 0
402, 1229854849, 0.05446091, 0.6784328, -0.038008787, 0.73165447, -0.015728073, 0.0075309896, 0.045176506, 0
403, 1229871516, 0.054458458, 0.6784215, -0.038025986, 0.7316643, 0.0029808, -0.0042484226, 0.05766678, 0
404, 1229888183, 0.054464795, 0.678416, -0.038051106, 0.7316676, 0.009558352, -0.0081977565, 0.059811592, 0
405, 1229904850, 0.054465868, 0.6784136, -0.038073577, 0.7316686, -0.004086255, -0.0043939855, 0.041064262, 0
406, 1229921517, 0.054475646, 0.6784067, -0.03808479, 0.7316736, 0.010000937, 0.0016239893, 0.0510931, 0
407, 1229938184, 0.05458254, 0.67839015, -0.038177628, 0.7316761, -8.6802826E-4, -0.006834104, 0.06121254, 0
408, 1229954851, 0.05461086, 0.6783882, -0.03819557, 0.73167497, 0.008839573, 0.0028961413, 0.04341507, 0
409, 1229971518, 0.054666676, 0.67838275, -0.038238637, 0.7316735, -0.0035775676, -0.0112330625, 0.050151825, 0
410, 1229988185, 0.054651223, 0.6783658, -0.03821636, 0.7316916, -0.024352392, -4.5389895E-4, 0.040298462, 0
411, 1230004852, 0.054679275, 0.67835903, -0.038226616, 0.73169535, 0.018649809, 0.010085324, 0.041786194, 0
412, 1230021519, 0.05467842, 0.6783673, -0.038202144, 0.731689, -0.0040481477, -0.0029065346, 0.03998947, 0
413, 1230038186, 0.05477016, 0.67835927, -0.03829012, 0.7316849, -0.0050640893, 0.0049951794, 0.044117928, 0
414, 1230054853, 0.054773267, 0.6783639, -0.03828448, 0.73168075, 0.0032543207, 7.876038E-5, 0.05014229, 0
415, 1230071520, 0.054765336, 0.6783713, -0.038287885, 0.7316743, -0.0075852317, 0.012157456, 0.044763565, 0
416, 1230088187, 0.054790523, 0.6783751, -0.038293906, 0.73166853, -0.0019855564, 8.232262E-4, 0.04305935, 0
417, 1230104854, 0.05484582, 0.6783958, -0.038267314, 0.73164666, 0.0014061881, 0.0051271357, 0.060583115, 0
418, 1230121521, 0.054899257, 0.6783861, -0.0382168, 0.7316542, -0.03317357, -0.0024179632, 0.03649807, 0
419, 1230138188, 0.054879848, 0.6783829, -0.038168073, 0.73166126, -0.004779187, 0.0024127665, 0.041944504, 0
420, 1230154855, 0.054834057, 0.6783608, -0.03810557, 0.73168844, 0.007868117, -0.01180724, 0.057120323, 0
421, 1230171522, 0.05468124, 0.67834705, -0.038218237, 0.73170674, 0.011763064, 0.07118983, 0.072452545, 0
422, 1230188189, 0.054718472, 0.6783208, -0.03821856, 0.73172814, -0.025258355, -0.05531873, 0.025712013, 0
423, 1230204856, 0.054719526, 0.67827266, -0.03829142, 0.731769, 2.959521E-4, -0.014554856, 0.045552254, 0
424, 1230221523, 0.054631885, 0.67823803, -0.038280647, 0.7318081, 0.010069156, 0.0022930752, 0.046892166, 0
425, 1230238190, 0.054652225, 0.67821944, -0.038309067, 0.7318224, 0.003578584, 0.0051025213, 0.05132389, 0
426, 1230254857, 0.054577146, 0.67819256, -0.038240165, 0.7318565, -5.563342E-4, 2.7751928E-4, 0.047457695, 0
427, 1230271524, 0.05450742, 0.6781549, -0.03817185, 0.73190016, 0.0066701123, -8.553003E-4, 0.054086685, 0
428, 1230288191, 0.054508407, 0.67812556, -0.03818086, 0.7319268, -0.0100791035, -0.011599568, 0.043103218, 0
429, 1230304858, 0.054579936, 0.67808664, -0.038260154, 0.7319533, -0.0064477725, -1.981163E-4, 0.04701805, 0
430, 1230321525, 0.054602, 0.67804545, -0.03824623, 0.7319907, -0.001969652, 0.0014105623, 0.047801018, 0
431, 1230338192, 0.054614507, 0.6780207, -0.03823904, 0.73201287, 0.0057385885, 2.7109327E-4, 0.038586617, 0
432, 1230354859, 0.05458763, 0.67798895, -0.03820389, 0.7320462, -0.014409038, 0.0065676766, 0.053141594, 0
433, 1230371526, 0.054657307, 0.67793673, -0.038228184, 0.7320881, -0.0016219637, 0.0034077624, 0.060591698, 0
434, 1230388193, 0.054715347, 0.6778742, -0.03826196, 0.73213995, 0.00983534, -0.0035390204, 0.040712357, 0
435, 1230404860, 0.054766756, 0.677831, -0.03830899, 0.73217356, 0.0013777758, 0.0031406365, 0.037736893, 0
436, 1230421527, 0.05498287, 0.67782027, -0.038533874, 0.73215556, -0.010326222, -0.011471914, 0.05553627, 0
437, 1230438194, 0.055104293, 0.6778189, -0.038677987, 0.7321401, 0.007991026, -0.024079107, 0.04319191, 0
438, 1230454861, 0.054928377, 0.67807895, -0.038853955, 0.73190325, 0.10140355, -0.022605794, 0.037981987, 0
439, 1230471528, 0.0550091, 0.67808974, -0.03879518, 0.73189014, -0.038222805, 0.0101749245, 0.045718193, 0
440, 1230488195, 0.055037364, 0.6780451, -0.038767688, 0.7319309, -0.03098593, 0.03639073, 0.065356255, 0
441, 1230504862, 0.054984726, 0.67802644, -0.038769003, 0.73195213, 0.0071626264, 0.0077954335, 0.045082092, 0
442, 1230521529, 0.054922562, 0.67805594, -0.038771536, 0.7319293, -0.0073440247, 0.01296269, 0.043478012, 0
443, 1230538196, 0.05489801, 0.67805964, -0.038799167, 0.7319262, 0.0037368624, -0.015059437, 0.0380373, 0
444, 1230554863, 0.05487857, 0.678056, -0.03879891, 0.7319311, 0.0076756584, 6.674935E-4, 0.039853096, 0
445, 1230571530, 0.05486883, 0.67804694, -0.038816623, 0.73193926, -0.010298995, -0.005110903, 0.044288635, 0
446, 1230588197, 0.05480838, 0.67804587, -0.038795553, 0.7319459, -0.008446156, 0.013202296, 0.03381157, 0
447, 1230604864, 0.0547343, 0.6780589, -0.038731776, 0.7319428, -0.015641712, 0.013924997, 0.054751396, 0
448, 1230621531, 0.054868206, 0.6780607, -0.03888713, 0.7319228, -0.001542112, 0.0058887564, 0.037734985, 0
449, 1230638198, 0.05486461, 0.67808473, -0.0389179, 0.7318992, -0.0013235948, 0.00896178, 0.041352272, 0
450, 1230654865, 0.05484605, 0.67815363, -0.03897321, 0.7318338, 0.04212987, 4.4275122E-4, 0.04674244, 0
451, 1230671532, 0.054895647, 0.6782042, -0.03893889, 0.731785, -0.028277941, 0.011178134, 0.046714783, 0
452, 1230688199, 0.05500519, 0.6782386, -0.03898657, 0.7317424, -0.0044484143, 0.0017150708, 0.03880787, 0
453, 1230704866, 0.055003732, 0.6782712, -0.038945716, 0.7317144, -7.178957E-4, -0.024849584, 0.026427269, 0
454, 1230721533, 0.054981194, 0.67831373, -0.03897819, 0.73167497, -0.008131749, -0.01935164, 0.03874874, 0
455, 1230738200, 0.05492585, 0.6783369, -0.039017096, 0.73165554, 0.0030738513, 0.0013417483, 0.047771454, 0
456, 1230754867, 0.054887313, 0.678359, -0.03906397, 0.7316356, -0.00894659, 0.0048009744, 0.053837776, 0
457, 1230771534, 0.05484059, 0.6783723, -0.03908835, 0.7316254, -0.001952569, 0.0054544425, 0.056588173, 0
458, 1230788201, 0.05479206, 0.67839044, -0.03907562, 0.73161286, -0.0069037215, 0.010526398, 0.047855377, 0
459, 1230804868, 0.054724187, 0.6784003, -0.03902776, 0.7316113, -0.01563785, -0.007656632, 0.046754837, 0
460, 1230821535, 0.05470021, 0.6784146, -0.038999125, 0.7316014, -0.01923758, 3.1403571E-4, 0.051493645, 0
461, 1230838202, 0.054587822, 0.6784262, -0.038894325, 0.7316047, -0.0024479472, -0.0065433695, 0.04194641, 0
462, 1230854869, 0.054568127, 0.6784387, -0.038880877, 0.7315953, 0.018785292, -0.012319084, 0.045066833, 0
463, 1230871536, 0.054554306, 0.6784288, -0.038858015, 0.7316066, -0.0059649097, -0.006164711, 0.046528816, 0
464, 1230888203, 0.0544585, 0.67842996, -0.038771022, 0.73161733, -7.166908E-5, 0.0025282388, 0.04701996, 0
465, 1230904870, 0.054452658, 0.6784337, -0.03876971, 0.73161435, -0.0064744074, -0.0044159736, 0.045959473, 0
466, 1230921537, 0.05433942, 0.67844933, -0.03865409, 0.7316145, 0.0043537407, -0.0040110517, 0.055028915, 0
467, 1230938204, 0.0543418, 0.67844975, -0.038644157, 0.7316144, -0.005469547, -0.004174328, 0.054483414, 0
468, 1230954871, 0.054364275, 0.6784437, -0.0386482, 0.7316182, -0.0015069454, -0.0075763627, 0.04500866, 0
469, 1230971538, 0.05435539, 0.678441, -0.038644854, 0.7316215, -0.0024445995, -0.0069012977, 0.050478935, 0
470, 1230988205, 0.054401167, 0.6784408, -0.0386809, 0.7316164, -1.4346214E-4, -0.0045825187, 0.057852745, 0
471, 1231004872, 0.054374825, 0.6784478, -0.038646985, 0.73161364, -0.009764577, -0.011639828, 0.035520554, 0
472, 1231021539, 0.05441689, 0.67845285, -0.03867463, 0.7316044, -0.004623685, 0.00660288, 0.055010796, 0
473, 1231038206, 0.054490495, 0.67844737, -0.038724754, 0.7316013, -0.0037166171, 0.008177222, 0.046607018, 0
474, 1231054873, 0.05449897, 0.67844903, -0.038716793, 0.73159945, 6.4686744E-4, 0.005784739, 0.0496006, 0
475, 1231071540, 0.05450917, 0.6784468, -0.03870117, 0.73160154, 0.0031180826, -0.007506934, 0.047060966, 0
476, 1231088207, 0.054484863, 0.6784499, -0.038691435, 0.731601, 0.0040621557, 0.0033460727, 0.043912888, 0
477, 1231104874, 0.054483186, 0.6784535, -0.03868302, 0.7315983, -0.01217964, -0.008305658, 0.03127384, 0
478, 1231121541, 0.054537546, 0.6784454, -0.038715165, 0.7316, -0.0044871727, -0.0035108577, 0.04986763, 0
479, 1231138208, 0.054491397, 0.6784425, -0.038684834, 0.7316078, 0.00415889, -0.0059983055, 0.055044174, 0
480, 1231154875, 0.054488286, 0.6784492, -0.0386725, 0.7316025, 3.871192E-4, -0.0053968322, 0.045718193, 0
481, 1231171542, 0.05449756, 0.67844516, -0.03868699, 0.73160475, -0.008783631, 0.0068498617, 0.04141426, 0
482, 1231188209, 0.05451924, 0.6784379, -0.038703118, 0.73160905, -0.013285955, 0.0010185485, 0.042808533, 0
483, 1231204876, 0.05449712, 0.6784281, -0.03867957, 0.7316211, 7.6775305E-4, 0.009507403, 0.042396545, 0
484, 1231221543, 0.054463904, 0.67843133, -0.03862222, 0.7316235, -0.004407047, -0.01071468, 0.04686165, 0
485, 1231238210, 0.054430123, 0.67843485, -0.038579516, 0.73162496, -0.005331706, -0.001993987, 0.05405903, 0
486, 1231254877, 0.054465804, 0.67843616, -0.038603954, 0.73161983, -0.0070066634, -0.010602589, 0.047382355, 0
487, 1231271544, 0.05446093, 0.67843086, -0.038590323, 0.73162585, -0.01053283, 0.0038033524, 0.05455494, 0
488, 1231288211, 0.05442468, 0.6784227, -0.038552597, 0.7316381, -0.0038215425, 2.4530547E-5, 0.042987823, 0
489, 1231304878, 0.05445068, 0.6784092, -0.038553156, 0.7316486, 0.012085745, -0.0134553965, 0.061816216, 0
490, 1231321545, 0.05447795, 0.6784047, -0.03858746, 0.731649, 0.019742899, -0.007950747, 0.047406197, 0
491, 1231338212, 0.054446485, 0.6784024, -0.038583416, 0.73165363, 0.0039353543, -0.0021000998, 0.05186653, 0
492, 1231354879, 0.054438736, 0.6783962, -0.038563177, 0.731661, -0.011293236, 0.0019946017, 0.046334267, 0
493, 1231371546, 0.05447074, 0.6783988, -0.038582075, 0.73165536, -0.011350976, -1.1930004E-5, 0.052736282, 0
494, 1231388213, 0.054547425, 0.6783934, -0.038630303, 0.731652, -0.0060258848, -0.008975694, 0.036664963, 0
495, 1231404880, 0.0545288, 0.67838603, -0.038586132, 0.73166263, -0.0196452, -0.013807597, 0.05432129, 0
496, 1231421547, 0.054503847, 0.6783777, -0.0385611, 0.73167354, -0.006755559, 2.5413424E-4, 0.027132988, 0
497, 1231438214, 0.05446942, 0.6783716, -0.038519215, 0.73168397, 0.010168183, 2.8252037E-4, 0.042157173, 0
498, 1231454881, 0.054474093, 0.6783699, -0.038507942, 0.7316858, 0.01996169, 0.0014693183, 0.048060417, 0
499, 1231471548, 0.054468967, 0.67837876, -0.038498763, 0.7316784, -0.005674248, -0.0073993406, 0.053925514, 0
500, 1231488215, 0.05444305, 0.6783946, -0.038484737, 0.73166645, -0.015945727, -0.0138943195, 0.037937164, 0
501, 1231504882, 0.054441776, 0.67840207, -0.038486768, 0.7316594, -0.003878222, 0.0073348572, 0.045485497, 0
502, 1231521549, 0.05437215, 0.6784089, -0.038415447, 0.731662, 0.0010071424, 0.0023563853, 0.041327477, 0
503, 1231538216, 0.05439496, 0.6784007, -0.03843218, 0.73166704, -0.004317986, 0.005754285, 0.05215168, 0
504, 1231554883, 0.054423727, 0.6783984, -0.03845429, 0.7316659, -0.006841194, -0.006901214, 0.043208122, 0
505, 1231571550, 0.054455955, 0.678407, -0.038479622, 0.73165417, -0.0016247593, -0.0054315603, 0.04254055, 0
506, 1231588217, 0.054474603, 0.67841023, -0.038490765, 0.73164916, 0.0042128246, -0.0046435934, 0.042884827, 0
507, 1231604884, 0.054464992, 0.6784095, -0.038480766, 0.73165107, 0.008386429, -0.008155513, 0.06247425, 0
508, 1231621551, 0.05443628, 0.6784175, -0.038447775, 0.73164755, -0.009639398, -0.003618116, 0.041965485, 0
509, 1231638218, 0.054432247, 0.67841333, -0.03843247, 0.7316525, -0.015758613, 0.0023648788, 0.04362774, 0
510, 1231654885, 0.054477174, 0.678412, -0.0384759, 0.73164827, -0.011233352, 0.0019135503, 0.038570404, 0
511, 1231671552, 0.05444698, 0.67840815, -0.038448848, 0.7316554, 0.0011956965, -0.0025830835, 0.05480194, 0
512, 1231688219, 0.054441564, 0.6784078, -0.038453493, 0.73165584, -0.0033301543, -0.018041296, 0.037096024, 0
513, 1231704886, 0.054439567, 0.67841095, -0.03845827, 0.73165286, 0.008668166, -0.007729162, 0.057494164, 0
514, 1231721553, 0.05446324, 0.67841727, -0.03848669, 0.73164386, 0.0040593375, -0.007029846, 0.044817924, 0
515, 1231738220, 0.05449473, 0.67841476, -0.038521357, 0.731642, 0.005151691, -0.007115479, 0.05475998, 0
516, 1231754887, 0.05448506, 0.6784107, -0.03849706, 0.73164773, -6.846673E-4, -0.007302336, 0.053871155, 0
517, 1231771554, 0.05449478, 0.67840314, -0.03850742, 0.73165345, -0.006223388, -0.007814264, 0.031726837, 0
518, 1231788221, 0.054467168, 0.6784133, -0.03849249, 0.73164684, 0.0060754158, 0.004944414, 0.051865578, 0
519, 1231804888, 0.054442547, 0.6784159, -0.038484767, 0.7316467, -0.0036192825, -0.0051959497, 0.049669266, 0
520, 1231821555, 0.054448884, 0.6784121, -0.038498174, 0.73164916, 0.010938806, 0.003881554, 0.05359459, 0
521, 1231838222, 0.054452714, 0.6784044, -0.038504846, 0.73165566, -0.0071908813, -0.014790467, 0.052309036, 0
522, 1231854889, 0.054509625, 0.67840266, -0.038558584, 0.7316501, -0.013230775, -0.004850678, 0.048291206, 0
523, 1231871556, 0.054513723, 0.67840695, -0.038557462, 0.7316459, -0.009246376, 0.008505926, 0.028244019, 0
524, 1231888223, 0.054511704, 0.6783992, -0.038530186, 0.7316547, -0.003622368, -0.0012192632, 0.041957855, 0
525, 1231904890, 0.05449833, 0.67839634, -0.03850052, 0.7316598, -3.606661E-4, 7.2258944E-4, 0.03394413, 0
526, 1231921557, 0.05453864, 0.67838913, -0.038531724, 0.7316619, 0.0034729356, -0.0085077975, 0.04427147, 0
527, 1231938224, 0.05454923, 0.67838764, -0.038535014, 0.73166233, 0.0021802746, -0.003077438, 0.05490017, 0
528, 1231954891, 0.054547787, 0.6783904, -0.03853366, 0.73165995, 6.5282197E-4, -0.0034156411, 0.051822662, 0
529, 1231971558, 0.054539606, 0.67838526, -0.038522318, 0.73166585, -0.0026612536, -0.0032168822, 0.042119026, 0
530, 1231988225, 0.05456502, 0.67838186, -0.038537007, 0.7316664, -0.008766513, -0.0058981716, 0.040424347, 0
531, 1232004892, 0.054545563, 0.6783831, -0.03850739, 0.7316682, -0.01970075, 0.0088053765, 0.043751717, 0
532, 1232021559, 0.054549795, 0.67838347, -0.038497698, 0.7316681, -0.0040016277, 0.007003583, 0.043460846, 0
533, 1232038226, 0.054543726, 0.67838424, -0.038479816, 0.7316688, -0.0068727285, -0.003660751, 0.04378891, 0
534, 1232054893, 0.054524023, 0.67838377, -0.03846062, 0.73167163, 0.01656592, -0.0035978323, 0.051462173, 0
535, 1232071560, 0.054522943, 0.6783824, -0.03845726, 0.7316732, 0.011083803, -0.006657501, 0.049212456, 0
536, 1232088227, 0.054519016, 0.6783802, -0.038451158, 0.73167586, -0.0022586316, -0.0040126443, 0.04843712, 0
537, 1232104894, 0.054568432, 0.67837155, -0.038490187, 0.7316781, -0.013491158, -0.0044479356, 0.045562744, 0
538, 1232121561, 0.054577623, 0.6783752, -0.038499504, 0.73167366, -0.009180496, 0.009363712, 0.04976082, 0
539, 1232138228, 0.054591298, 0.6783706, -0.038501333, 0.73167676, -0.0029651718, 0.004043489, 0.04701805, 0
540, 1232154895, 0.054571643, 0.6783631, -0.038472425, 0.73168665, -0.011992189, -0.0049684136, 0.042326927, 0
541, 1232171562, 0.05455705, 0.67835456, -0.038451843, 0.7316969, -0.0014053202, 0.0018692109, 0.04392624, 0
542, 1232188229, 0.054605104, 0.67835176, -0.038507033, 0.7316928, 0.0067773457, -0.0064393245, 0.050242424, 0
543, 1232204896, 0.054579318, 0.678352, -0.038489234, 0.7316955, -0.018103825, -0.010546934, 0.04635811, 0
544, 1232221563, 0.054569162, 0.6783528, -0.03848125, 0.73169595, -0.0063429484, -7.404984E-4, 0.049977303, 0
545, 1232238230, 0.054569464, 0.67835325, -0.038487, 0.7316952, -0.0041004047, -0.0012107976, 0.043474197, 0
546, 1232254897, 0.054658055, 0.67834663, -0.038584795, 0.7316895, 0.008840198, -0.0029170676, 0.038822174, 0
547, 1232271564, 0.05463595, 0.6783401, -0.038583945, 0.7316973, 0.004669575, 0.0044131516, 0.03580475, 0
548, 1232288231, 0.054639068, 0.67833567, -0.038569387, 0.73170197, -0.009954226, -0.0047813333, 0.03572464, 0
549, 1232304898, 0.054625623, 0.6783294, -0.038539484, 0.7317103, -0.0032889163, -0.0058369013, 0.04334736, 0
550, 1232321565, 0.054639354, 0.6783231, -0.03853726, 0.7317153, -6.1547436E-4, -0.003956794, 0.04069805, 0
551, 1232338232, 0.05471237, 0.6783159, -0.038594615, 0.7317135, 0.009402387, -0.0069069136, 0.047436714, 0
552, 1232354899, 0.05473962, 0.67831343, -0.03861342, 0.7317127, 0.0051244115, -0.011617617, 0.041030884, 0
553, 1232371566, 0.05473435, 0.6783154, -0.03860215, 0.73171186, 0.004693947, 0.004546561, 0.04631138, 0
554, 1232388233, 0.05484906, 0.6783081, -0.03870268, 0.7317048, 0.0011825965, 0.0019284139, 0.046966553, 0
555, 1232404900, 0.05486623, 0.67830926, -0.038713492, 0.7317019, -0.016354352, 0.008238212, 0.047815323, 0
556, 1232421567, 0.05485815, 0.67830426, -0.03869347, 0.7317081, -0.014671944, 8.133078E-5, 0.04801655, 0
557, 1232438234, 0.05492367, 0.6783034, -0.038747843, 0.7317012, 2.1149914E-5, -0.0018569736, 0.049164772, 0
558, 1232454901, 0.054965533, 0.6782956, -0.038793966, 0.73170286, 0.009490718, -0.0075526703, 0.042236328, 0
559, 1232471568, 0.054961458, 0.67831016, -0.038779635, 0.7316904, 0.010031483, 6.4067193E-4, 0.040916443, 0
560, 1232488235, 0.054972857, 0.6783143, -0.038789473, 0.7316851, -0.0022191135, -0.010009636, 0.04457283, 0
561, 1232504902, 0.054971837, 0.67831486, -0.038799427, 0.7316842, 0.0046585533, 0.001232674, 0.0503273, 0
562, 1232521569, 0.05489663, 0.67831856, -0.038728092, 0.7316901, -0.008772225, 0.0034674404, 0.04155445, 0
563, 1232538236, 0.05492878, 0.6783176, -0.03875168, 0.7316873, -0.013021414, -0.002124798, 0.05023098, 0
564, 1232554903, 0.05493036, 0.6783225, -0.038766626, 0.73168194, -0.008526743, -6.814351E-4, 0.030014992, 0
565, 1232571570, 0.05493533, 0.6783211, -0.03877943, 0.7316821, -0.0011301147, -0.0043736733, 0.044128418, 0
566, 1232588237, 0.054934863, 0.67832416, -0.038780805, 0.73167914, 0.0044544055, -0.0031420614, 0.046549797, 0
567, 1232604904, 0.05492737, 0.67831475, -0.038776223, 0.73168874, 0.017514711, 0.0014383338, 0.06553459, 0
568, 1232621571, 0.0549273, 0.67830867, -0.038765505, 0.731695, -0.011557749, -9.3378127E-4, 0.028108597, 0
569, 1232638238, 0.054949217, 0.67830354, -0.038783032, 0.7316971, -0.014052695, 8.429512E-4, 0.04091263, 0
570, 1232654905, 0.054949578, 0.67831, -0.038762026, 0.7316923, -0.014100385, -0.008097958, 0.036884308, 0
571, 1232671572, 0.054954436, 0.6783129, -0.03874979, 0.7316899, 0.005693867, -0.0025375145, 0.04066372, 0
572, 1232688239, 0.054897048, 0.67832595, -0.03868162, 0.73168576, -0.017636124, -0.0035999555, 0.041223526, 0
573, 1232704906, 0.0548749, 0.67832536, -0.038654957, 0.7316893, -0.0082264785, -0.012439529, 0.0586586, 0
574, 1232721573, 0.054885466, 0.6783226, -0.038657535, 0.73169094, 0.0055258307, -7.1887356E-5, 0.047132492, 0
575, 1232738240, 0.054926064, 0.6783261, -0.038676202, 0.7316838, 0.0045657395, -0.008329014, 0.05121708, 0
576, 1232754907, 0.05495112, 0.6783235, -0.038690902, 0.73168355, -0.0070085158, 0.0032405746, 0.037607193, 0
577, 1232771574, 0.054956656, 0.6783187, -0.038679652, 0.73168814, -0.010535572, -0.0031882727, 0.03703308, 0
578, 1232788241, 0.054996625, 0.67830926, -0.038703747, 0.7316925, -0.0013854939, -0.0010014498, 0.045200348, 0
579, 1232804908, 0.054976594, 0.67830276, -0.03868694, 0.731701, -0.016244886, 0.0121029755, 0.049022675, 0
580, 1232821575, 0.05498158, 0.6782962, -0.03868152, 0.7317069, 0.00725511, 0.0045349943, 0.047590256, 0
581, 1232838242, 0.054957237, 0.67828715, -0.03866272, 0.7317181, -8.413551E-4, -5.8588333E-4, 0.045217514, 0
582, 1232854909, 0.05499934, 0.6782867, -0.038709536, 0.731713, -0.01034374, 0.014212183, 0.04710102, 0
583, 1232871576, 0.05500694, 0.678281, -0.038719837, 0.7317172, -0.010327149, -7.095978E-4, 0.058588028, 0
584, 1232888243, 0.054999035, 0.67828226, -0.03870975, 0.7317171, 0.009851737, 0.010105523, 0.04929447, 0
585, 1232904910, 0.0550578, 0.6782852, -0.038756475, 0.7317075, -0.009348765, -0.0023020438, 0.041544914, 0
586, 1232921577, 0.05503126, 0.6782806, -0.03873482, 0.73171496, -0.016303528, -0.009720411, 0.05478382, 0
587, 1232938244, 0.055042293, 0.6782754, -0.038742512, 0.7317185, 0.0011972192, -0.0041295136, 0.050063133, 0
588, 1232954911, 0.055055898, 0.67826456, -0.038755976, 0.7317269, -0.0021922518, 0.0059890016, 0.044068336, 0
589, 1232971578, 0.05499667, 0.6782668, -0.038715046, 0.73173136, -0.0031278927, 0.003354203, 0.045316696, 0
590, 1232988245, 0.055040475, 0.67826635, -0.03876547, 0.73172575, 0.0033168432, 0.001060094, 0.05517292, 0
591, 1233004912, 0.05506303, 0.6782606, -0.038791623, 0.7317279, -0.0069711073, 0.0040244064, 0.04911232, 0
592, 1233021579, 0.055020086, 0.6782674, -0.038748063, 0.7317271, -0.0056393733, 0.013730876, 0.049405098, 0
593, 1233038246, 0.05503914, 0.67827135, -0.038779967, 0.7317205, -0.018066997, -0.0052644284, 0.04263878, 0
594, 1233054913, 0.05502662, 0.6782696, -0.038766026, 0.7317238, -0.01656249, -0.006953432, 0.053367615, 0
595, 1233071580, 0.055017762, 0.67826664, -0.038759723, 0.7317275, -0.005002482, -4.761664E-4, 0.041830063, 0
596, 1233088247, 0.05506286, 0.67826366, -0.03880225, 0.7317246, -0.013297823, 0.0052475533, 0.036190033, 0
597, 1233104914, 0.055107217, 0.6782604, -0.03884472, 0.7317221, 0.00889993, -0.0033790967, 0.0437212, 0
598, 1233121581, 0.055138037, 0.6782528, -0.03887278, 0.73172534, -3.777142E-4, -0.0010191073, 0.03993416, 0
599, 1233138248, 0.05510057, 0.678256, -0.038835146, 0.7317272, -0.0013520281, 0.004458385, 0.044006348, 0
600, 1233154915, 0.054431, 0.67893434, -0.039526816, 0.7311109, 0.007706236, -0.028767962, 0.040524483, 0
601, 1233171582, 0.054437365, 0.6789435, -0.039520007, 0.7311022, -8.18934E-4, -0.010923665, 0.03683567, 0
602, 1233188249, 0.054394938, 0.678943, -0.039470155, 0.7311086, 0.021270517, -0.013848304, 0.04120636, 0
603, 1233204916, 0.054368373, 0.6789488, -0.039442047, 0.73110664, 0.009803807, -0.026427027, 0.040053368, 0
604, 1233221583, 0.054380476, 0.67894334, -0.039457113, 0.73111004, 0.019908335, -0.022259152, 0.0476923, 0
605, 1233238250, 0.05436864, 0.6789468, -0.039441116, 0.73110855, 0.015749663, -0.027440881, 0.045707703, 0
606, 1233254917, 0.054367144, 0.678951, -0.03944335, 0.73110455, 0.00604346, -0.02668876, 0.041947365, 0
607, 1233271584, 0.054376684, 0.678959, -0.039449506, 0.73109615, 0.006621271, -0.026661659, 0.046132088, 0
608, 1233288251, 0.054325726, 0.67896765, -0.039402895, 0.7310945, 0.01684203, -0.02319623, 0.047908783, 0
609, 1233304918, 0.054310497, 0.67896295, -0.039379135, 0.7311013, -0.0036154408, -0.01981434, 0.045685768, 0
610, 1233321585, 0.05430174, 0.6789655, -0.03936723, 0.7311001, 0.014701022, -0.024256129, 0.041228294, 0
611, 1233338252, 0.054350406, 0.6789628, -0.039394595, 0.73109746, 0.024144968, -0.016250622, 0.044174194, 0
612, 1233354919, 0.054356415, 0.67896837, -0.039404765, 0.7310914, 0.013886338, -0.02045817, 0.03151226, 0
613, 1233371586, 0.054341216, 0.67897946, -0.039410524, 0.7310819, 0.016165001, -0.023484562, 0.052617073, 0
614, 1233388253, 0.05430146, 0.6789713, -0.03938393, 0.7310938, 0.009205266, -0.026477596, 0.04475975, 0
615, 1233404920, 0.054260302, 0.6789647, -0.039332088, 0.731106, 0.010630482, -0.02328379, 0.044913292, 0
616, 1233421587, 0.054266404, 0.6789678, -0.03932334, 0.7311031, 0.0145502025, -0.03219746, 0.05128002, 0
617, 1233438254, 0.054264504, 0.6789636, -0.039314974, 0.7311075, 0.013632313, -0.012449699, 0.03913784, 0
618, 1233454921, 0.05418223, 0.678974, -0.039236233, 0.7311082, 0.020119, -0.016184239, 0.041991234, 0
619, 1233471588, 0.05424184, 0.67897236, -0.039282884, 0.7311028, 0.0014645425, -0.018888885, 0.037499428, 0
620, 1233488255, 0.054249596, 0.6789731, -0.03929649, 0.73110086, 0.0054903794, -0.043596454, 0.046590805, 0
621, 1233504922, 0.054223068, 0.6789659, -0.039263375, 0.73111117, 0.023159679, -0.023796363, 0.045746803, 0
622, 1233521589, 0.05422889, 0.67895484, -0.039261546, 0.7311211, 0.015928106, -0.027181802, 0.047654152, 0
623, 1233538256, 0.05421288, 0.6789516, -0.039245266, 0.7311262, 0.017628584, -0.022764292, 0.043121338, 0
624, 1233554923, 0.054227144, 0.6789475, -0.039259046, 0.73112816, 0.0034655894, -0.018425515, 0.039125443, 0
625, 1233571590, 0.054240376, 0.6789396, -0.039249584, 0.731135, 0.009024117, -0.013490935, 0.04432392, 0
626, 1233588257, 0.054240502, 0.6789308, -0.03923738, 0.73114383, 0.010218422, -0.019759718, 0.049962044, 0
627, 1233604924, 0.054245308, 0.67893326, -0.03922154, 0.73114204, 0.0150905065, -0.023321928, 0.046276093, 0
628, 1233621591, 0.054245718, 0.6789407, -0.0392215, 0.7311352, 0.03464885, -0.025359668, 0.04163742, 0
629, 1233638258, 0.054237306, 0.6789546, -0.039213277, 0.7311234, 0.028535604, -0.030997783, 0.055438995, 0
630, 1233654925, 0.054236956, 0.6789541, -0.039220564, 0.7311233, -8.1815344E-4, -0.024002023, 0.04863453, 0
631, 1233671592, 0.054234307, 0.6789562, -0.039222803, 0.73112154, 0.0030946818, -0.02260965, 0.033304214, 0
632, 1233688259, 0.05420033, 0.67895746, -0.03918508, 0.73112494, 0.0032950663, -0.022513678, 0.03908539, 0
633, 1233704926, 0.054198675, 0.67895395, -0.039178386, 0.73112875, 0.013019486, -0.011242869, 0.050951004, 0
634, 1233721593, 0.054167807, 0.67894715, -0.039148506, 0.731139, 0.0075728353, -0.026335806, 0.055337906, 0
635, 1233738260, 0.054194957, 0.6789362, -0.03914622, 0.7311473, 0.012344452, -0.02071912, 0.0604105, 0
636, 1233754927, 0.054212656, 0.6789385, -0.03914982, 0.73114353, 0.014710282, -0.01793549, 0.04301262, 0
637, 1233771594, 0.054205064, 0.67894477, -0.039146665, 0.73113847, 0.010699831, -0.026179597, 0.0462389, 0
638, 1233788261, 0.05419007, 0.67894644, -0.03915785, 0.73113734, 0.0030154919, -0.024113277, 0.053552628, 0
639, 1233804928, 0.054199, 0.678954, -0.03916627, 0.7311292, -0.0016234253, -0.02009063, 0.039391518, 0
640, 1233821595, 0.054191917, 0.678953, -0.039160255, 0.7311311, 0.008075174, -0.02228385, 0.042250633, 0
641, 1233838262, 0.05427041, 0.678947, -0.03923523, 0.73112667, 0.0027464696, -0.023128757, 0.044166565, 0
642, 1233854929, 0.054271955, 0.67894363, -0.03922825, 0.7311301, 0.028264586, -0.011635778, 0.047743797, 0
643, 1233871596, 0.054287046, 0.6789466, -0.03924697, 0.73112524, 0.014549462, -0.028506562, 0.043026924, 0
644, 1233888263, 0.05427539, 0.6789479, -0.039251536, 0.73112464, 0.012982851, -0.026097959, 0.045071602, 0
645, 1233904930, 0.054332875, 0.6789472, -0.039313935, 0.7311177, 0.009094341, -0.022923991, 0.05313301, 0
646, 1233921597, 0.054334898, 0.67896026, -0.03931816, 0.73110515, 0.01601645, -0.014698352, 0.04569149, 0
647, 1233938264, 0.05431964, 0.6789646, -0.03931152, 0.73110265, 0.002471208, -0.015836703, 0.056669235, 0
648, 1233954931, 0.05434027, 0.6789684, -0.03931828, 0.73109716, 0.0068635745, -0.019796487, 0.05796528, 0
649, 1233971598, 0.05434419, 0.6789647, -0.039318446, 0.7311003, 0.008014628, -0.021451237, 0.04320526, 0
650, 1233988265, 0.054351404, 0.67896277, -0.039331373, 0.7311009, 0.021039613, -0.010928191, 0.028307915, 0
651, 1234004932, 0.05434404, 0.67897266, -0.039326888, 0.7310926, 0.020825252, -0.02701601, 0.049845695, 0
652, 1234021599, 0.054408845, 0.67897624, -0.039381254, 0.7310815, 0.0034137412, -0.019763825, 0.034679413, 0
653, 1234038266, 0.054470893, 0.6789821, -0.03943275, 0.73106873, 0.022396553, -0.019885557, 0.04974079, 0
654, 1234054933, 0.054465838, 0.67898875, -0.039425354, 0.73106325, 0.02756446, -0.01650646, 0.035157204, 0
655, 1234071600, 0.054425467, 0.67899567, -0.039384358, 0.731062, -0.00960929, -0.015779624, 0.05509281, 0
656, 1234088267, 0.05443555, 0.6789886, -0.0393773, 0.73106825, 0.0011341833, -0.013742582, 0.055805206, 0
657, 1234104934, 0.054400977, 0.67898613, -0.039340332, 0.7310749, -0.011344384, -0.016719468, 0.048602104, 0
658, 1234121601, 0.054407652, 0.6789918, -0.039355792, 0.73106843, 0.026716176, -0.020827776, 0.04580593, 0
659, 1234138268, 0.05439696, 0.67899615, -0.039376196, 0.7310642, 0.022866372, -0.021648627, 0.055472374, 0
660, 1234154935, 0.05440247, 0.67900956, -0.039386496, 0.73105067, 0.009575122, -0.028573338, 0.039180756, 0
661, 1234171602, 0.054431327, 0.6790144, -0.03940399, 0.731043, 0.011049317, -0.011930563, 0.044653893, 0
662, 1234188269, 0.05444865, 0.6790068, -0.039400946, 0.731049, 0.00959492, -0.02602853, 0.032767296, 0
663, 1234204936, 0.054479692, 0.679016, -0.03942231, 0.73103714, -0.0019309843, -0.02258903, 0.047920227, 0
664, 1234221603, 0.054488793, 0.6790154, -0.039439816, 0.731036, 0.010462442, -0.01607536, 0.04323101, 0
665, 1234238270, 0.054487083, 0.6790147, -0.03943785, 0.7310369, 0.016055902, -0.027132768, 0.045739174, 0
666, 1234254937, 0.054484766, 0.6790128, -0.039441984, 0.7310386, 0.029121784, -0.021732584, 0.04436493, 0
667, 1234271604, 0.05449943, 0.67900974, -0.0394589, 0.73103935, 0.023033718, -0.018695518, 0.04813385, 0
668, 1234288271, 0.054512754, 0.67901045, -0.039468408, 0.73103726, 0.0074934866, -0.016249448, 0.029577255, 0
669, 1234304938, 0.0545267, 0.67901236, -0.039470993, 0.7310343, -0.012934538, -0.01953034, 0.043984413, 0
670, 1234321605, 0.054514013, 0.679024, -0.039449327, 0.73102564, 0.0010045144, -0.016565327, 0.046617508, 0
671, 1234338272, 0.05452403, 0.67901903, -0.039459847, 0.73102885, -0.0013058465, -0.019087167, 0.04889965, 0
672, 1234354939, 0.054533947, 0.6790152, -0.039466098, 0.73103136, 0.005697656, -0.022299077, 0.040276527, 0
673, 1234371606, 0.05455644, 0.6790069, -0.039458793, 0.73103786, 0.0244422, -0.0175494, 0.036816597, 0
674, 1234388273, 0.05457096, 0.6790083, -0.03947184, 0.73103476, 0.029413288, -0.018064903, 0.0433836, 0
675, 1234404940, 0.054564796, 0.6790053, -0.03948289, 0.7310374, 0.020761058, -0.029199257, 0.049313545, 0
676, 1234421607, 0.054559976, 0.6790142, -0.03949777, 0.7310286, 0.017269209, -0.016444575, 0.0428133, 0
677, 1234438274, 0.054568402, 0.6790179, -0.03950734, 0.73102415, 0.012024484, -0.018077755, 0.048086166, 0
678, 1234454941, 0.05457967, 0.67902356, -0.03951312, 0.73101777, 0.0053725685, -0.024569886, 0.057855606, 0
679, 1234471608, 0.05461158, 0.6790188, -0.03953335, 0.7310187, 0.010930964, -0.0126461955, 0.04730034, 0
680, 1234488275, 0.05461187, 0.67900556, -0.039514054, 0.73103184, 0.00803695, -0.018883437, 0.049168587, 0
681, 1234504942, 0.054640036, 0.6789969, -0.039542172, 0.73103637, 0.014057193, -0.023451818, 0.041944504, 0
682, 1234521609, 0.054642428, 0.67898715, -0.039566427, 0.7310439, 0.016908074, -0.028722951, 0.04122448, 0
683, 1234538276, 0.054622494, 0.6789822, -0.039581276, 0.7310492, 0.028662102, -0.025314938, 0.04039669, 0
684, 1234554943, 0.054630175, 0.6789799, -0.039622467, 0.7310485, 0.023853203, -0.01714864, 0.050667763, 0
685, 1234571610, 0.054585986, 0.6789912, -0.039616678, 0.73104155, 0.02255535, -0.017048534, 0.05387211, 0
686, 1234588277, 0.054583807, 0.6789957, -0.03962734, 0.731037, 0.0099302875, -0.018261343, 0.048015594, 0
687, 1234604944, 0.05460508, 0.67899853, -0.03965323, 0.73103136, 0.010453246, -0.018045068, 0.052165985, 0
688, 1234621611, 0.054593988, 0.6789909, -0.03962424, 0.7310409, 0.026227789, -0.020099739, 0.045345306, 0
689, 1234638278, 0.05459959, 0.67898774, -0.039616525, 0.7310438, 0.018341023, -0.040343642, 0.05561161, 0
690, 1234654945, 0.054622494, 0.6789923, -0.0396542, 0.73103595, 0.0061121085, -0.024727657, 0.03431797, 0
691, 1234671612, 0.05462093, 0.6789982, -0.039668452, 0.73102975, 0.006924941, -0.03258587, 0.03614521, 0
692, 1234688279, 0.05460078, 0.6790047, -0.039665632, 0.73102534, 0.020414112, -0.0256682, 0.041275024, 0
693, 1234704946, 0.05458743, 0.67900443, -0.03965801, 0.73102695, 0.011578241, -0.01478988, 0.042313576, 0
694, 1234721613, 0.054575942, 0.6790062, -0.03964064, 0.7310271, 0.020559248, -0.018004695, 0.04338932, 0
695, 1234738280, 0.05458799, 0.6790021, -0.03963989, 0.7310301, 0.013146227, -0.011208029, 0.040431023, 0
696, 1234754947, 0.05456677, 0.6790067, -0.039609894, 0.7310291, 0.011529263, -0.018893968, 0.041980743, 0
697, 1234771614, 0.05456206, 0.6790112, -0.03961131, 0.7310252, 0.005403153, -0.026888665, 0.049430847, 0
698, 1234788281, 0.054542936, 0.67901725, -0.039601915, 0.7310215, 0.01644787, -0.026786435, 0.058455467, 0
699, 1234804948, 0.05453429, 0.67901736, -0.039596006, 0.73102236, 0.016753785, -0.025475923, 0.042892456, 0
700, 1234821615, 0.05456707, 0.6790219, -0.03961748, 0.7310146, 0.013196021, -0.020035114, 0.050855637, 0
701, 1234838282, 0.054574545, 0.6790246, -0.039624557, 0.73101103, 0.019709032, -0.021160223, 0.033956528, 0
702, 1234854949, 0.05461817, 0.67902154, -0.039671987, 0.73100805, 0.012335933, -0.01701065, 0.034080505, 0
703, 1234871616, 0.054620937, 0.6790228, -0.039673828, 0.7310066, 0.013295205, -0.017334156, 0.052020073, 0
704, 1234888283, 0.054636147, 0.67902523, -0.03968863, 0.7310024, 0.023073046, -0.024818068, 0.05128479, 0
705, 1234904950, 0.054652903, 0.67902684, -0.03971184, 0.73099834, 0.015396412, -0.027483515, 0.034887314, 0
706, 1234921617, 0.054633643, 0.6790344, -0.039706074, 0.7309931, 0.022358852, -0.025379756, 0.03917408, 0
707, 1234938284, 0.054688677, 0.6790371, -0.039747555, 0.73098415, 0.022028912, -0.014180807, 0.044704437, 0
708, 1234954951, 0.05469461, 0.6790382, -0.039746936, 0.7309827, 0.018283954, -0.020400502, 0.03411579, 0
709, 1234971618, 0.05471355, 0.6790377, -0.039746173, 0.7309819, 0.01678314, -0.019584596, 0.046653748, 0
710, 1234988285, 0.054731112, 0.67904, -0.039754417, 0.7309779, 0.0047339103, -0.019680707, 0.043673515, 0
711, 1235004952, 0.054735947, 0.6790379, -0.039753877, 0.73097956, 0.017588235, -0.014645938, 0.050358772, 0
712, 1235021619, 0.05476982, 0.6790323, -0.039775085, 0.7309812, 0.019352734, -0.020242004, 0.03983116, 0
713, 1235038286, 0.054753594, 0.6790285, -0.039763737, 0.7309865, 0.029763097, -0.02220604, 0.05125332, 0
714, 1235054953, 0.054720778, 0.67902726, -0.039751023, 0.7309909, 0.019503456, -0.026920151, 0.04020214, 0
715, 1235071620, 0.05473327, 0.67903006, -0.0397658, 0.73098654, 0.016450854, -0.018353682, 0.048627853, 0
716, 1235088287, 0.054708038, 0.6790328, -0.039756157, 0.7309863, 0.010210042, -0.012104317, 0.045319557, 0
717, 1235104954, 0.05466518, 0.6790361, -0.03972581, 0.730988, 0.010499072, -0.025474135, 0.05301857, 0
718, 1235121621, 0.054673497, 0.679027, -0.039732452, 0.73099554, 0.0027010825, -0.015485089, 0.038274765, 0
719, 1235138288, 0.05467712, 0.6790232, -0.039727233, 0.73099905, 0.008415519, -0.015504675, 0.040756226, 0
720, 1235154955, 0.054899625, 0.6786517, -0.039657075, 0.73133117, 0.02352658, -0.011322691, 0.044392586, 0
721, 1235171622, 0.05489953, 0.67865586, -0.039663546, 0.73132694, 0.010652772, -0.02164941, 0.04656124, 0
722, 1235188289, 0.05481541, 0.678662, -0.039589792, 0.7313315, 0.0039663054, -0.020107672, 0.04776764, 0
723, 1235204956, 0.054808933, 0.6786574, -0.039595537, 0.73133594, 0.014072315, -0.022087242, 0.03907013, 0
724, 1235221623, 0.054846857, 0.67865217, -0.039629217, 0.7313362, 0.00698127, -0.013094171, 0.03151703, 0
725, 1235238290, 0.054863274, 0.67865235, -0.039641734, 0.7313341, 0.0047709136, -0.020077946, 0.0441103, 0
726, 1235254957, 0.054877758, 0.6786427, -0.03965146, 0.7313414, 0.009671043, -0.013951204, 0.039931297, 0
727, 1235271624, 0.054879796, 0.6786379, -0.039644945, 0.731346, 0.014545145, -0.007937616, 0.047501564, 0
728, 1235288291, 0.05489409, 0.6786328, -0.039668187, 0.7313485, 0.019204564, -0.020602223, 0.046207428, 0
729, 1235304958, 0.05482576, 0.67863613, -0.03962676, 0.73135287, 0.019762522, -0.024299435, 0.04876995, 0
730, 1235321625, 0.05479859, 0.67864466, -0.03961235, 0.7313477, -0.0027693587, -0.021226075, 0.055971146, 0
731, 1235338292, 0.054796137, 0.678647, -0.039621323, 0.73134524, 0.008157624, -0.012101104, 0.0467062, 0
732, 1235354959, 0.05482175, 0.67864275, -0.039638225, 0.73134637, 0.0043524643, -0.013021669, 0.041440964, 0
733, 1235371626, 0.05481974, 0.678635, -0.039639533, 0.73135364, 0.013527865, 0.0012254936, 0.05703926, 0
734, 1235388293, 0.054788787, 0.6786368, -0.039583344, 0.7313574, 0.003712159, -0.016672166, 0.046987534, 0
735, 1235404960, 0.054798562, 0.6786316, -0.039568085, 0.7313622, 0.0075016483, -0.014645044, 0.04235649, 0
736, 1235421627, 0.05482216, 0.67863405, -0.03959261, 0.7313568, 0.007644852, -0.020705877, 0.034895897, 0
737, 1235438294, 0.054794125, 0.6786363, -0.039585155, 0.7313572, 0.008615581, -0.016926218, 0.042370796, 0
738, 1235454961, 0.054791532, 0.67864394, -0.03958757, 0.73135024, 0.0047142585, -0.028534446, 0.05759144, 0
739, 1235471628, 0.05475324, 0.6786408, -0.039558224, 0.73135763, 0.015177464, -0.019568782, 0.04091263, 0
740, 1235488295, 0.054754242, 0.67864364, -0.039558638, 0.73135483, 0.0078103775, -0.009481895, 0.04011917, 0
741, 1235504962, 0.054758854, 0.67864364, -0.039558966, 0.7313545, 0.015590907, -0.0065733483, 0.03899765, 0
742, 1235521629, 0.05477408, 0.67864794, -0.039565567, 0.731349, 0.0016192518, -0.011202414, 0.04237938, 0
743, 1235538296, 0.054851264, 0.6786451, -0.03961422, 0.73134327, 0.018853389, -0.010121756, 0.050411224, 0
744, 1235554963, 0.054858502, 0.6786364, -0.039601967, 0.7313515, 0.0044649052, -0.020753542, 0.05226326, 0
745, 1235571630, 0.05486521, 0.67864025, -0.03960114, 0.73134756, 0.008111233, -0.027323816, 0.038599968, 0
746, 1235588297, 0.054834206, 0.6786519, -0.0395791, 0.73134005, 0.0105269225, -0.0326496, 0.046751022, 0
747, 1235604964, 0.05482286, 0.6786491, -0.03957213, 0.73134387, 0.015383967, -0.026526155, 0.044545174, 0
748, 1235621631, 0.054784488, 0.6786506, -0.039532747, 0.7313475, 0.0011242841, -0.0063737794, 0.049761772, 0
749, 1235638298, 0.054774996, 0.67864794, -0.03952612, 0.731351, 0.005066082, -0.018457728, 0.049520493, 0
750, 1235654965, 0.054782405, 0.6786488, -0.039536744, 0.7313491, -0.0047663804, -0.0053571304, 0.048419952, 0
751, 1235671632, 0.05481286, 0.6786435, -0.03955624, 0.73135066, 0.001593492, -0.0057711606, 0.041571617, 0
752, 1235688299, 0.05480614, 0.6786328, -0.039535657, 0.7313623, 0.00449585, -0.022423267, 0.048174858, 0
753, 1235704966, 0.054822087, 0.6786286, -0.039552823, 0.73136395, 0.015326767, -0.022594925, 0.04415703, 0
754, 1235721633, 0.054816555, 0.67863697, -0.039553832, 0.7313567, 0.0014413076, -0.031728026, 0.037553787, 0
755, 1235738300, 0.054799274, 0.67863977, -0.039524727, 0.73135704, -0.012596045, -0.023317263, 0.057510376, 0
756, 1235754967, 0.054804705, 0.6786418, -0.03952378, 0.7313548, -0.0017581808, -0.02098876, 0.046135902, 0
757, 1235771634, 0.054812733, 0.67864, -0.03952722, 0.7313556, 0.018096335, -0.012739065, 0.0436821, 0
758, 1235788301, 0.054813847, 0.6786423, -0.03952772, 0.7313534, 9.254013E-4, -0.014179243, 0.043258667, 0
759, 1235804968, 0.0547908, 0.67864126, -0.039509997, 0.7313569, 0.014001192, -0.026442925, 0.05456066, 0
760, 1235821635, 0.054771494, 0.6786464, -0.039497916, 0.7313543, 8.4202393E-4, -0.02051793, 0.040668488, 0
761, 1235838302, 0.054773267, 0.6786485, -0.039501812, 0.73135203, 0.01522059, -0.025982153, 0.052215576, 0
762, 1235854969, 0.05477235, 0.67864835, -0.03950326, 0.7313521, -0.0029880102, -0.024196452, 0.049749374, 0
763, 1235871636, 0.054801505, 0.678641, -0.03952751, 0.73135555, -0.0012473367, -0.018260757, 0.048419952, 0
764, 1235888303, 0.054789953, 0.6786389, -0.03953089, 0.7313582, 0.0011175962, -0.013214841, 0.041625023, 0
765, 1235904970, 0.054798402, 0.67864203, -0.03953168, 0.73135465, 0.002224944, -0.021777986, 0.049067497, 0
766, 1235921637, 0.054800276, 0.67863524, -0.039547317, 0.7313599, 0.01974606, -0.016246319, 0.048802376, 0
767, 1235938304, 0.0547522, 0.6786275, -0.03950521, 0.73137295, 0.015185703, -0.025578264, 0.060473442, 0
768, 1235954971, 0.054701302, 0.67863303, -0.03946927, 0.73137355, 0.018627323, -0.018989325, 0.042024612, 0
769, 1235971638, 0.054698057, 0.6786287, -0.0394854, 0.73137695, 0.0025387718, -0.011494126, 0.048031807, 0
770, 1235988305, 0.05467832, 0.6786282, -0.03946679, 0.7313799, -0.0060459, -0.013627948, 0.04518318, 0
771, 1236004972, 0.054683212, 0.6786219, -0.039473806, 0.73138493, 0.0084537435, -0.020215489, 0.046037674, 0
772, 1236021639, 0.054684408, 0.67861545, -0.03946765, 0.7313912, 0.00874938, -0.014401582, 0.05948639, 0
773, 1236038306, 0.05467761, 0.6786118, -0.03946189, 0.7313954, -0.016657025, -0.007789175, 0.04161644, 0
774, 1236054973, 0.05468581, 0.6786003, -0.03946569, 0.73140526, -0.001875567, -0.020249436, 0.04900837, 0
775, 1236071640, 0.054669395, 0.67859983, -0.039453633, 0.7314076, -8.198263E-4, -0.020668102, 0.03513527, 0
776, 1236088307, 0.054696437, 0.678602, -0.03949418, 0.7314013, 0.002668996, -0.02778903, 0.054750443, 0
777, 1236104974, 0.05472497, 0.6786052, -0.03951943, 0.7313948, -0.005751114, -0.027252488, 0.044740677, 0
778, 1236121641, 0.05477885, 0.6785958, -0.039564807, 0.73139715, 0.004647147, -0.014004959, 0.05513096, 0
779, 1236138308, 0.054769117, 0.6785919, -0.039559104, 0.73140174, -5.159011E-4, -0.009702977, 0.049263, 0
780, 1236154975, 0.054775182, 0.6785893, -0.03955422, 0.731404, 0.009195632, -0.0056293975, 0.04834175, 0
781, 1236171642, 0.054778393, 0.6785873, -0.039543264, 0.7314062, 7.796761E-6, -0.0138521595, 0.05377865, 0
782, 1236188309, 0.054823156, 0.6785834, -0.0395555, 0.73140585, 7.706081E-4, -0.012068749, 0.048229218, 0
783, 1236204976, 0.05482178, 0.67858344, -0.039518867, 0.7314079, 0.009514332, -0.025690552, 0.053320885, 0
784, 1236221643, 0.054831903, 0.67858195, -0.039505035, 0.7314092, 0.009693064, -0.02267511, 0.0489645, 0
785, 1236238310, 0.05482995, 0.6785872, -0.039506424, 0.7314045, 0.010204966, -0.017935937, 0.05085087, 0
786, 1236254977, 0.05482551, 0.67859143, -0.03951424, 0.73140043, 0.008229744, -0.01341874, 0.045689583, 0
787, 1236271644, 0.05483194, 0.6785938, -0.039514594, 0.73139757, 0.020533802, -0.011223284, 0.037994385, 0
788, 1236288311, 0.05482624, 0.6785928, -0.039519288, 0.7313987, 0.0062994664, -0.018471166, 0.027115822, 0
789, 1236304978, 0.05482155, 0.6785887, -0.03950231, 0.7314038, -0.004399007, -0.01682072, 0.045654297, 0
790, 1236321645, 0.05482888, 0.67858505, -0.039497547, 0.73140687, -0.004733662, -0.0204126, 0.032514572, 0
791, 1236338312, 0.054799814, 0.6785889, -0.039459117, 0.7314076, 0.034808677, -0.022205397, 0.047938347, 0
792, 1236354979, 0.054799452, 0.6785969, -0.039459728, 0.7314002, 0.014101413, -0.021745576, 0.03944969, 0
793, 1236371646, 0.054790188, 0.67861193, -0.039455917, 0.73138714, 0.0062673087, -0.021013208, 0.05192852, 0
794, 1236388313, 0.054854658, 0.6786154, -0.039511055, 0.7313762, 0.008731118, -0.015624869, 0.04610634, 0
795, 1236404980, 0.054875895, 0.67862, -0.039522063, 0.7313696, -0.014344988, -0.00711696, 0.04510212, 0
796, 1236421647, 0.054880373, 0.67861634, -0.03952888, 0.73137236, -0.0025808134, -0.01277885, 0.04684162, 0
797, 1236438314, 0.054887358, 0.6786171, -0.03955989, 0.73136944, -0.00693944, -0.010533076, 0.051394463, 0
798, 1236454981, 0.054894775, 0.67862016, -0.039564513, 0.73136586, -0.004313301, -0.0066926205, 0.043839455, 0
799, 1236471648, 0.054917175, 0.6786201, -0.03958854, 0.73136294, 0.012926427, -0.026746705, 0.058944702, 0
800, 1236488315, 0.054917056, 0.67863476, -0.039584406, 0.73134947, 0.016265044, -0.021374349, 0.05274582, 0
801, 1236504982, 0.054896407, 0.6786389, -0.03956422, 0.7313482, 0.007469854, -0.010634886, 0.03348255, 0
802, 1236521649, 0.054891847, 0.6786419, -0.03955854, 0.73134613, -0.003188662, -0.019116532, 0.04379654, 0
803, 1236538316, 0.05490993, 0.67863816, -0.039563116, 0.731348, 0.009026825, -0.017964825, 0.04254532, 0
804, 1236554983, 0.05494178, 0.6786373, -0.03959244, 0.7313448, -0.012127302, -0.017876761, 0.047546387, 0
805, 1236571650, 0.05494685, 0.6786313, -0.039598465, 0.7313497, 0.003991713, -0.016685214, 0.04605484, 0
806, 1236588317, 0.054934755, 0.6786267, -0.039591372, 0.73135525, 0.016237274, -0.014788204, 0.03307438, 0
807, 1236604984, 0.054924253, 0.67862487, -0.03959253, 0.7313577, 0.013214472, -0.014620905, 0.047802925, 0
808, 1236621651, 0.054942477, 0.67862916, -0.039617028, 0.73135096, -0.0117762415, -0.02595818, 0.040584564, 0
809, 1236638318, 0.054935705, 0.67863137, -0.03961218, 0.73134977, 0.009083416, -0.011164109, 0.043201447, 0
810, 1236654985, 0.054933514, 0.678634, -0.03961119, 0.73134756, -0.0041342215, -0.0052195303, 0.04356575, 0
811, 1236671652, 0.054918513, 0.6786276, -0.039596155, 0.7313554, 0.01831464, -0.015207402, 0.030384064, 0
812, 1236688319, 0.054920744, 0.67862546, -0.03960013, 0.73135704, 0.009376891, -0.017404087, 0.042544365, 0
813, 1236704986, 0.054934744, 0.6786225, -0.039622806, 0.7313575, -5.8215344E-4, -0.019966608, 0.03835106, 0
814, 1236721653, 0.054916278, 0.67862004, -0.03960242, 0.73136234, 0.011467276, -0.024791693, 0.031686783, 0
815, 1236738320, 0.054922532, 0.6786212, -0.039596286, 0.7313611, 0.0053967256, -0.023961678, 0.052124977, 0
816, 1236754987, 0.054888215, 0.6786251, -0.03955222, 0.73136234, -0.006891086, -0.015753612, 0.049710274, 0
817, 1236771654, 0.05491007, 0.6786257, -0.03957748, 0.7313588, -0.0017739019, -0.022827322, 0.043260574, 0
818, 1236788321, 0.054894943, 0.6786214, -0.03954234, 0.7313659, 0.0033116816, -0.006089415, 0.036540985, 0
819, 1236804988, 0.05492442, 0.6786139, -0.039569188, 0.7313691, 0.018836949, -0.020905362, 0.04934883, 0
820, 1236821655, 0.05492254, 0.67861533, -0.03956654, 0.7313681, 0.018330662, -0.012830929, 0.04366207, 0
821, 1236838322, 0.05492038, 0.6786097, -0.039565884, 0.73137337, -0.013931053, -0.017713876, 0.048423767, 0
822, 1236854989, 0.054923806, 0.67860866, -0.03957104, 0.7313741, 0.008047984, -0.013101826, 0.04870224, 0
823, 1236871656, 0.0549172, 0.6786094, -0.039579645, 0.7313733, 0.009754894, -0.014558265, 0.04446125, 0
824, 1236888323, 0.05490128, 0.6786134, -0.039584275, 0.7313705, -0.0029940591, -0.021061122, 0.041873932, 0
825, 1236904990, 0.054868896, 0.67862064, -0.03955158, 0.731368, 0.014508978, -0.017135257, 0.04720688, 0
826, 1236921657, 0.054904692, 0.67861915, -0.039568417, 0.73136586, 0.002140753, -0.019141342, 0.045802116, 0
827, 1236938324, 0.05487532, 0.67861634, -0.039542034, 0.731372, 0.027446302, -0.011421959, 0.04708767, 0
828, 1236954991, 0.054889526, 0.6786202, -0.03954389, 0.7313673, 0.009058956, -0.014338077, 0.047893524, 0
829, 1236971658, 0.054885, 0.6786183, -0.039520297, 0.7313706, 0.0019085056, -0.019619465, 0.038903236, 0
830, 1236988325, 0.054885413, 0.6786238, -0.03951446, 0.73136586, -2.5041308E-4, -0.02397034, 0.04228878, 0
831, 1237004992, 0.054912724, 0.6786331, -0.039550193, 0.7313532, 0.0125338035, -0.017700242, 0.0398674, 0
832, 1237021659, 0.054926578, 0.67864454, -0.039572634, 0.7313402, 0.015496517, -0.028812189, 0.039162636, 0
833, 1237038326, 0.054930333, 0.67864114, -0.0395814, 0.7313428, 0.005033063, -0.017149338, 0.05326271, 0
834, 1237054993, 0.054910842, 0.67864597, -0.039558955, 0.73134094, 0.008031817, -0.006801471, 0.045788765, 0
835, 1237071660, 0.054884225, 0.6786552, -0.039526302, 0.7313361, 0.02040283, -0.01043554, 0.042604446, 0
836, 1237088327, 0.05487903, 0.6786587, -0.039524943, 0.7313333, 0.007363762, -0.011543914, 0.05243683, 0
837, 1237104994, 0.05483837, 0.6786536, -0.039486602, 0.73134315, -5.71245E-4, -0.0136208795, 0.034851074, 0
838, 1237121661, 0.05480661, 0.6786568, -0.03945241, 0.7313445, 0.016666062, -0.026194852, 0.045518875, 0
839, 1237138328, 0.05480896, 0.6786616, -0.039455734, 0.7313396, -0.0027338534, -0.023404237, 0.040374756, 0
840, 1237154995, 0.054773238, 0.6786428, -0.039508265, 0.73135686, 0.0103919795, -0.020906843, 0.050376892, 0
841, 1237171662, 0.05478894, 0.678646, -0.039531067, 0.73135155, 0.019833416, -0.014862941, 0.04434967, 0
842, 1237188329, 0.054784976, 0.678646, -0.039530993, 0.7313519, 0.02422732, -0.023773117, 0.053351402, 0
843, 1237204996, 0.054743037, 0.67864615, -0.039499443, 0.73135656, -9.5990085E-4, -0.02507927, 0.054340363, 0
844, 1237221663, 0.05471715, 0.678644, -0.039478328, 0.7313617, 0.013611522, -0.008448427, 0.054774284, 0
845, 1237238330, 0.05473065, 0.6786441, -0.03948218, 0.7313603, 0.009839054, -0.02061784, 0.040294647, 0
846, 1237254997, 0.054726854, 0.6786473, -0.039480913, 0.73135775, 0.01943984, -0.02138329, 0.049271584, 0
847, 1237271664, 0.05474986, 0.67865276, -0.039488878, 0.7313505, 0.007606635, -0.022525106, 0.052823067, 0
848, 1237288331, 0.05473726, 0.67865556, -0.039489646, 0.73134875, 0.008905781, -0.01993878, 0.05504036, 0
849, 1237304998, 0.054720562, 0.6786481, -0.039478634, 0.7313576, 0.0067725037, -0.012952911, 0.047114372, 0
850, 1237321665, 0.05470474, 0.67864877, -0.039483473, 0.7313578, 0.0027259588, -0.018447949, 0.049705505, 0
851, 1237338332, 0.05468393, 0.67864597, -0.03946915, 0.7313628, 0.013894375, -0.019737842, 0.0630064, 0
852, 1237354999, 0.05472878, 0.6786397, -0.039505586, 0.73136324, 9.6315227E-4, -0.0073306663, 0.05223751, 0
853, 1237371666, 0.054747842, 0.678636, -0.039499704, 0.73136544, 0.008582091, -0.009140618, 0.05172348, 0
854, 1237388333, 0.054749858, 0.6786375, -0.039505016, 0.73136383, 0.020504132, -0.034513447, 0.041207314, 0
855, 1237405000, 0.054741066, 0.678643, -0.03949366, 0.73136, 0.017382728, -0.013223977, 0.04776287, 0
856, 1237421667, 0.05476395, 0.67864716, -0.039513122, 0.7313533, 0.024156464, -0.024160381, 0.043026924, 0
857, 1237438334, 0.054766454, 0.6786395, -0.039523873, 0.73135966, 0.0021959222, -0.023547202, 0.04859066, 0
858, 1237455001, 0.054792315, 0.6786331, -0.039549567, 0.7313622, 0.00801633, -0.015482156, 0.049310684, 0
859, 1237471668, 0.054734282, 0.67863286, -0.03948762, 0.7313703, 0.0042420435, -0.012483897, 0.03704548, 0
860, 1237488335, 0.054733813, 0.6786335, -0.03948754, 0.73136955, 8.7489607E-4, -0.01337468, 0.049978256, 0
861, 1237505002, 0.054784633, 0.678639, -0.039541524, 0.7313579, 0.006472359, -0.009802943, 0.046117783, 0
862, 1237521669, 0.054773845, 0.6786369, -0.039545976, 0.7313603, -0.005503727, -0.010464821, 0.047026634, 0
863, 1237538336, 0.054764748, 0.67864037, -0.03954198, 0.73135805, 0.022672255, -0.02906948, 0.038025856, 0
864, 1237555003, 0.054710966, 0.6786408, -0.03949062, 0.7313644, 0.0071477573, -0.020556096, 0.05613804, 0
865, 1237571670, 0.0547082, 0.6786368, -0.039486498, 0.7313686, 0.0013753066, -0.012764741, 0.052559853, 0
866, 1237588337, 0.054696858, 0.6786321, -0.039478723, 0.73137426, 0.0022183747, -0.026251877, 0.05020809, 0
867, 1237605004, 0.054715216, 0.6786262, -0.039490744, 0.73137766, -0.0070807924, -0.013655524, 0.04701519, 0
868, 1237621671, 0.05468338, 0.67863077, -0.03946715, 0.73137707, 0.004588616, -0.016211785, 0.041309357, 0
869, 1237638338, 0.05467833, 0.67863435, -0.039473936, 0.7313738, 0.01646819, -0.014998725, 0.052576065, 0
870, 1237655005, 0.05463807, 0.6786439, -0.039425395, 0.7313705, 0.0012931813, -0.011078448, 0.049581528, 0
871, 1237671672, 0.054663535, 0.6786468, -0.039443884, 0.73136497, 0.0036937785, -0.016436948, 0.040369987, 0
872, 1237688339, 0.054658674, 0.6786444, -0.03942794, 0.7313683, 0.007555059, -0.025141492, 0.051049232, 0
873, 1237705006, 0.05467107, 0.6786441, -0.03942265, 0.73136795, 0.008932479, -0.02988888, 0.03551197, 0
874, 1237721673, 0.054682404, 0.67864066, -0.039438676, 0.7313695, -0.008497809, -0.015336118, 0.05277157, 0
875, 1237738340, 0.05472122, 0.67863804, -0.039466213, 0.7313676, 0.00965467, -0.017740699, 0.045692444, 0
876, 1237755007, 0.05472523, 0.6786399, -0.03946692, 0.7313655, 0.012529702, -0.018855218, 0.046355247, 0
877, 1237771674, 0.05469795, 0.67864364, -0.039444182, 0.7313652, 0.0024899186, -0.026984049, 0.049510956, 0
878, 1237788341, 0.054718588, 0.67864585, -0.039460886, 0.7313608, 0.0128018875, -0.016189853, 0.057617188, 0
879, 1237805008, 0.054706737, 0.67864144, -0.03943998, 0.731367, 0.0065199635, -0.018558057, 0.04426956, 0
880, 1237821675, 0.05468652, 0.6786396, -0.039429102, 0.7313706, 0.016277699, -0.012140358, 0.04095173, 0
881, 1237838342, 0.05469489, 0.6786401, -0.039428297, 0.73136955, 0.01736428, -0.01992386, 0.04471302, 0
882, 1237855009, 0.054703712, 0.67863816, -0.039417807, 0.7313714, 0.006290636, -0.018751703, 0.050006866, 0
883, 1237871676, 0.054695047, 0.6786329, -0.039405894, 0.73137754, 0.014945572, -0.017232904, 0.054021835, 0
884, 1237888343, 0.054710366, 0.6786343, -0.039431132, 0.73137367, 0.015405356, -0.022706877, 0.027113914, 0
885, 1237905010, 0.054706838, 0.6786317, -0.039439123, 0.73137593, 0.01700877, -0.016808733, 0.054338455, 0
886, 1237921677, 0.05469618, 0.6786374, -0.039423164, 0.73137236, 0.015701542, -0.015608161, 0.04106903, 0
887, 1237938344, 0.05468132, 0.67862743, -0.039420687, 0.7313828, 0.0044605173, -0.0165047, 0.04277134, 0
888, 1237955011, 0.05468656, 0.6786273, -0.039424676, 0.7313823, 0.0011627616, -0.019079486, 0.037825584, 0
889, 1237971678, 0.054683268, 0.6786343, -0.039426923, 0.73137605, 0.011496651, -0.0137432525, 0.042999268, 0
890, 1237988345, 0.05468896, 0.67863405, -0.039435886, 0.73137534, -0.0071813734, -0.01258878, 0.047115326, 0
891, 1238005012, 0.05462769, 0.6786315, -0.039369352, 0.7313859, -0.0017453394, -0.01884706, 0.044667244, 0
892, 1238021679, 0.054614335, 0.67863107, -0.03935028, 0.7313883, -0.003589763, -0.021937825, 0.054636, 0
893, 1238038346, 0.05462677, 0.6786297, -0.03936091, 0.73138803, 0.0030878612, -0.017199071, 0.036165237, 0
894, 1238055013, 0.054811496, 0.67861813, -0.0395375, 0.7313754, -2.358568E-4, -0.02320084, 0.032631874, 0
895, 1238071680, 0.054815795, 0.67861664, -0.03953691, 0.7313764, -0.0026706255, -0.026357792, 0.041727066, 0
896, 1238088347, 0.054804087, 0.6786133, -0.03952966, 0.7313809, 0.0065588322, -0.016081898, 0.032906532, 0
897, 1238105014, 0.054786514, 0.6786131, -0.039510034, 0.7313833, 0.013364419, -0.013732497, 0.046599388, 0
898, 1238121681, 0.054764275, 0.67860293, -0.039504927, 0.7313948, -0.0017641999, -0.020781228, 0.036413193, 0
899, 1238138348, 0.054744296, 0.6786051, -0.039495617, 0.7313949, -0.0036697055, -0.03297112, 0.055060387, 0
900, 1238155015, 0.054734074, 0.67859364, -0.039488103, 0.73140657, 0.0064887158, -0.024079274, 0.05121517, 0
901, 1238171682, 0.05472921, 0.67859125, -0.03949374, 0.73140883, 0.0018083071, -0.017391711, 0.042485237, 0
902, 1238188349, 0.0547328, 0.6785969, -0.039496746, 0.7314031, 0.006537813, -0.02594734, 0.034584045, 0
903, 1238205016, 0.054735985, 0.67860085, -0.039506916, 0.7313987, 0.0070979525, -0.017303927, 0.04514122, 0
904, 1238221683, 0.054742403, 0.678603, -0.03952779, 0.7313951, -0.004512788, -0.005588075, 0.026412964, 0
905, 1238238350, 0.054746993, 0.67859244, -0.039524365, 0.73140466, -0.008078397, -0.00920052, 0.043501854, 0
906, 1238255017, 0.0548233, 0.67857677, -0.03955583, 0.7314119, 0.0042326874, -0.01872706, 0.04724884, 0
907, 1238271684, 0.05480202, 0.6785654, -0.039550815, 0.73142433, 0.003178396, -0.026349189, 0.0498991, 0
908, 1238288351, 0.054782696, 0.67857265, -0.03956027, 0.7314186, 0.01870378, -0.026011292, 0.04989338, 0
909, 1238305018, 0.054817785, 0.67856765, -0.03960897, 0.73141795, 0.0034367002, -0.022915386, 0.041158676, 0
910, 1238321685, 0.054817114, 0.6785608, -0.039630834, 0.7314231, 0.01296921, -0.025622798, 0.047688484, 0
911, 1238338352, 0.05481966, 0.6785232, -0.039634902, 0.73145765, -0.007071115, -0.02008331, 0.05093193, 0
912, 1238355019, 0.054853067, 0.67846286, -0.039641194, 0.7315107, -0.014241687, -0.019820264, 0.056077957, 0
913, 1238371686, 0.054879505, 0.67837477, -0.039616663, 0.73159176, -0.0070993667, -0.015982155, 0.041329384, 0
914, 1238388353, 0.05492511, 0.6782474, -0.03961568, 0.73170644, 0.0074022147, -0.021419246, 0.048799515, 0
915, 1238405020, 0.054928146, 0.678217, -0.03961835, 0.7317342, 0.0321013, -0.01019803, 0.03044033, 0
916, 1238421687, 0.05488882, 0.6782114, -0.039676234, 0.7317392, -0.04071642, -0.13271908, 0.03562832, 0
917, 1238438354, 0.054921255, 0.6782054, -0.039665993, 0.7317431, 0.09725365, 0.106589615, 0.05795765, 0
918, 1238455021, 0.054888904, 0.67825556, -0.03971785, 0.7316961, -0.017254658, -0.01367198, 0.04694748, 0
919, 1238471688, 0.05487326, 0.67824763, -0.039742038, 0.7317032, 0.011553412, -0.024587793, 0.05057621, 0
920, 1238488355, 0.054896332, 0.6782311, -0.039758645, 0.7317159, -0.020801593, 0.003585986, 0.051279068, 0
921, 1238505022, 0.054936107, 0.6782039, -0.039742447, 0.7317391, 0.017187469, -0.024430301, 0.04487133, 0
922, 1238521689, 0.05494175, 0.6781814, -0.03969961, 0.7317618, 0.02172073, -0.019191213, 0.049845695, 0
923, 1238538356, 0.054939467, 0.67818534, -0.03967561, 0.73175967, 0.022710824, -0.042029124, 0.045215607, 0
924, 1238555023, 0.05485548, 0.67821825, -0.039627563, 0.73173803, 0.015543912, -0.029395167, 0.05148697, 0
925, 1238571690, 0.054834478, 0.678279, -0.039639093, 0.73168266, 0.029643903, -0.036185015, 0.042247772, 0
926, 1238588357, 0.0548131, 0.6783427, -0.039673954, 0.73162335, -0.007600532, -0.0013057068, 0.04628086, 0
927, 1238605024, 0.054812543, 0.6783526, -0.039646134, 0.7316158, -0.021662366, -0.0047118207, 0.046042442, 0
928, 1238621691, 0.054837517, 0.6783375, -0.0396136, 0.7316297, -0.0038228487, -0.0038386674, 0.06279278, 0
929, 1238638358, 0.054884315, 0.6783132, -0.039560717, 0.73165154, 0.010603202, -0.019567385, 0.03180313, 0
930, 1238655025, 0.054896217, 0.67829484, -0.039538987, 0.7316688, 0.0044880947, -0.039245997, 0.04990959, 0
931, 1238671692, 0.054854292, 0.6782922, -0.039490644, 0.73167694, 0.018230759, -0.012354567, 0.03586769, 0
932, 1238688359, 0.054864686, 0.67828965, -0.039478287, 0.7316793, 0.0024639475, -0.027490165, 0.044041634, 0
933, 1238705026, 0.0548129, 0.6782871, -0.039423607, 0.7316885, 0.015318876, -0.027983151, 0.040789604, 0
934, 1238721693, 0.054798126, 0.6782901, -0.039415605, 0.7316872, -0.009430279, -0.022026867, 0.06617832, 0
935, 1238738360, 0.054801237, 0.6782868, -0.03942318, 0.7316897, 0.019059299, -0.024178738, 0.039683342, 0
936, 1238755027, 0.05480921, 0.6782873, -0.039440878, 0.73168755, 0.016956419, -0.024299016, 0.049310684, 0
937, 1238771694, 0.054800157, 0.6782907, -0.03945525, 0.7316843, 0.0060892142, -0.016292054, 0.044397354, 0
938, 1238788361, 0.054789327, 0.6782979, -0.039460823, 0.7316782, 0.011733681, -0.021769464, 0.047260284, 0
939, 1238805028, 0.054775886, 0.678293, -0.03945561, 0.731684, -0.0010101686, -0.030766558, 0.058397293, 0
940, 1238821695, 0.05474615, 0.67829424, -0.039435875, 0.7316863, -0.0025291208, -0.0154265845, 0.05156994, 0
941, 1238838362, 0.054703858, 0.6782911, -0.039408594, 0.73169374, 0.0045891018, -0.026278166, 0.03614998, 0
942, 1238855029, 0.054692753, 0.67830217, -0.039423004, 0.7316836, 0.0024093753, -0.035959266, 0.043756485, 0
943, 1238871696, 0.05469712, 0.678304, -0.039460614, 0.73167944, -0.0039539197, -0.017823705, 0.046361923, 0
944, 1238888363, 0.0546912, 0.6783045, -0.039494287, 0.7316776, 0.010789599, -0.025443038, 0.044908524, 0
945, 1238905030, 0.05465347, 0.67830974, -0.03950833, 0.7316748, 0.011406383, -0.017126372, 0.047203064, 0
946, 1238921697, 0.05457612, 0.6783201, -0.03951067, 0.7316708, 0.020958848, -0.022274323, 0.047600746, 0
947, 1238938364, 0.054521635, 0.6783449, -0.03951432, 0.7316517, 6.247886E-4, -0.021690452, 0.040242195, 0
948, 1238955031, 0.05449742, 0.6783816, -0.039527167, 0.7316189, 0.01952906, -0.025515094, 0.03628826, 0
949, 1238971698, 0.05447371, 0.67843544, -0.03953456, 0.73157024, 0.011267842, -0.016471842, 0.04185295, 0
950, 1238988365, 0.054498103, 0.6784717, -0.039537475, 0.73153466, 0.014425608, -0.020255722, 0.0455513, 0
951, 1239005032, 0.05451877, 0.6784751, -0.039495066, 0.7315322, -0.01123051, -0.02055889, 0.04197979, 0
952, 1239021699, 0.054525334, 0.6784967, -0.03950482, 0.7315112, 0.012746657, -0.03963315, 0.039016724, 0
953, 1239038366, 0.054530855, 0.67854255, -0.0395375, 0.7314665, 0.021216491, -0.023062095, 0.05720234, 0
954, 1239055033, 0.054518163, 0.67860186, -0.039517652, 0.7314135, 0.012673595, -0.0034880314, 0.075790405, 0
955, 1239071700, 0.054514285, 0.6786462, -0.039587826, 0.7313689, -0.032901943, -0.054841362, 0.037898064, 0
956, 1239088367, 0.054405283, 0.67861295, -0.039729286, 0.73140013, -0.0014196793, -0.0014875067, 0.059370995, 0
957, 1239105034, 0.05433243, 0.6785348, -0.039862916, 0.7314708, -0.023397906, -0.0249025, 0.057592392, 0
958, 1239121701, 0.05437209, 0.67807513, -0.040195834, 0.73187584, -0.19389774, -0.023932258, 0.1255951, 0
959, 1239138368, 0.054583214, 0.6766499, -0.041008253, 0.733133, -0.44302, -0.07498463, 0.2588415, 0
960, 1239155035, 0.05428042, 0.67287636, -0.0425924, 0.7365304, -0.07849708, -0.046884216, 0.64483356, 0
961, 1239171702, 0.05273707, 0.66811633, -0.043270495, 0.74092335, 0.25675073, 0.056379326, 1.6169176, 0
962, 1239188369, 0.05206543, 0.6675746, -0.04540028, 0.7413315, 0.48667175, -0.08841457, 2.767292, 0
963, 1239205036, 0.051625118, 0.67103994, -0.047955014, 0.73806554, 0.75848246, -0.18033305, 2.8598452, 0
964, 1239221703, 0.050864715, 0.67614263, -0.0509203, 0.7332471, 0.7879014, -0.4074802, 2.722618, 0
965, 1239238370, 0.050149266, 0.68069834, -0.053821586, 0.72886086, 0.6687184, -0.018097844, 2.3789701, 0
966, 1239255037, 0.049314298, 0.68597734, -0.05763748, 0.72365814, 0.6417678, 0.25563258, 2.7739, 0
967, 1239271704, 0.048910018, 0.69053113, -0.06102767, 0.71906215, -0.65324134, 0.00272968, 1.8721094, 0
968, 1239288371, 0.04833973, 0.6900443, -0.062663265, 0.7194273, -0.9377789, 0.06651941, 1.4189434, 0
969, 1239305038, 0.04768753, 0.6848079, -0.06317248, 0.72441256, -0.78995055, 0.07144251, 1.5515108, 0
970, 1239321705, 0.04711355, 0.6770989, -0.06327864, 0.73165107, -0.5933903, 0.13424225, 2.1220198, 0
971, 1239338372, 0.045563277, 0.6700107, -0.06391194, 0.7381904, -0.813658, 0.11131216, 2.7691422, 0
972, 1239355039, 0.04289372, 0.6660942, -0.06545652, 0.7417508, -0.706483, -0.009951356, 2.9469595, 0
973, 1239371706, 0.039073173, 0.6645245, -0.06753568, 0.74318206, -0.7137619, -0.032489676, 2.04671, 0
974, 1239388373, 0.034901924, 0.6625293, -0.069591895, 0.744979, -0.7125801, -0.03887997, 0.9961405, 0
975, 1239405040, 0.031107172, 0.658878, -0.07111147, 0.7482348, -0.677501, 0.0076002227, 0.32232952, 0
976, 1239421707, 0.02752012, 0.65332025, -0.07200905, 0.7531468, -0.80129665, 0.09758422, -0.07430363, 0
977, 1239438374, 0.024174277, 0.6461687, -0.072395146, 0.7593686, -1.1048334, 0.051041767, -0.13755226, 0
978, 1239455041, 0.020948056, 0.638079, -0.07266475, 0.76624835, -1.6585788, -0.1940347, 0.53073597, 0
979, 1239471708, 0.016805729, 0.6303966, -0.07318084, 0.7726335, -1.6583047, -0.27102888, 1.3232718, 0
980, 1239488375, 0.010853311, 0.62467533, -0.074239716, 0.77727187, -1.5460827, -0.18046923, 1.0152502, 0
981, 1239505042, 0.0041952995, 0.61986005, -0.07551863, 0.78105885, -1.4012859, -0.1439596, 0.13479042, 0
982, 1239521709, -0.002037348, 0.61477214, -0.076417856, 0.7849913, -1.5124862, -0.10347457, -0.44507694, 0
983, 1239538376, -0.0076094717, 0.6079405, -0.07665267, 0.79023725, -1.4565651, -0.07051832, -0.5520277, 0
984, 1239555043, -0.012631702, 0.5998452, -0.076563224, 0.7963445, -1.0294785, -0.17003821, -0.5407429, 0
985, 1239571710, -0.017357387, 0.59108686, -0.07650121, 0.80278426, -0.850115, -0.2502364, -0.51468277, 0
986, 1239588377, -0.022080366, 0.5825167, -0.07636393, 0.8089224, -0.53106177, -0.382084, -0.29348373, 0
987, 1239605044, -0.02740942, 0.57531404, -0.07659955, 0.8138766, -0.2820281, -0.43032897, -0.07137966, 0
988, 1239621711, -0.033578698, 0.5693697, -0.077263236, 0.8177539, -0.47490168, -0.48167065, -0.20996666, 0
989, 1239638378, -0.039739966, 0.5640989, -0.07815228, 0.8210393, -0.33096313, -0.45338246, -0.61563206, 0
990, 1239655045, -0.04544893, 0.55850977, -0.07906567, 0.8244696, -0.3724453, -0.44559604, -1.0836868, 0
991, 1239671712, -0.05086283, 0.55224824, -0.0800615, 0.82826644, -0.26059347, -0.38610283, -1.2375412, 0
992, 1239688379, -0.055873923, 0.5455752, -0.08111079, 0.83225405, -0.10370469, -0.42718565, -1.187912, 0
993, 1239705046, -0.060317867, 0.53890604, -0.08235191, 0.8361581, 0.030643549, -0.4916325, -1.2125092, 0
994, 1239721713, -0.064318195, 0.53253996, -0.08393289, 0.8397736, 0.2909147, -0.40602326, -1.2099209, 0
995, 1239738380, -0.0678278, 0.52658534, -0.08552668, 0.8430851, 0.61014175, -0.2573231, -1.2379723, 0
996, 1239755047, -0.07200403, 0.5215095, -0.086939275, 0.8457452, 0.74294317, -0.08231937, -1.2260437, 0
997, 1239771714, -0.07714029, 0.5167042, -0.08827909, 0.84809965, 0.6423255, -0.12100936, -1.6002913, 0
998, 1239788381, -0.08203742, 0.5121431, -0.08936786, 0.8502898, 0.78064585, -0.07386589, -1.4456587, 0
999, 1239805048, -0.086456254, 0.5082072, -0.09010915, 0.8521334, 0.68686914, -0.056773577, -1.4021387, 0
1000, 1239821715, -0.09049082, 0.5044174, -0.09066752, 0.8539051, 0.509259, -0.0943335, -1.3046293, 0
1001, 1239838382, -0.09449149, 0.50092816, -0.09087098, 0.8555027, 0.7391938, 0.05113191, -1.2741117, 0
1002, 1239855049, -0.09813989, 0.49709213, -0.090894274, 0.85732526, 1.2498593, 0.24397878, -1.5606604, 0
1003, 1239871716, -0.10088935, 0.49281567, -0.09082771, 0.8594792, 1.7586017, 0.5590831, -1.6424913, 0
1004, 1239888383, -0.103029974, 0.4882637, -0.090707965, 0.8618328, 1.9388384, 0.66180265, -1.5182028, 0
1005, 1239905050, -0.10483983, 0.48399568, -0.09055411, 0.8640352, 1.8465447, 0.51624495, -1.2110367, 0
1006, 1239921717, -0.10599931, 0.48086286, -0.090178914, 0.8656806, 1.7510679, 0.45844147, -1.057231, 0
1007, 1239938384, -0.10701284, 0.47846016, -0.089750946, 0.8669308, 1.593767, 0.3235653, -0.98131657, 0
1008, 1239955051, -0.10791868, 0.47650805, -0.08958828, 0.8679099, 1.5159158, 0.24418838, -0.945261, 0
1009, 1239971718, -0.10888715, 0.47466478, -0.08985424, 0.86877114, 1.6702695, 0.31213737, -1.0779057, 0
1010, 1239988385, -0.10963577, 0.47353402, -0.09019189, 0.869259, 1.8911941, 0.54063046, -1.4070892, 0
1011, 1240005052, -0.10969175, 0.47298893, -0.09054698, 0.8695116, 1.9876353, 0.6755611, -1.626997, 0
1012, 1240021719, -0.109133825, 0.47313386, -0.09064795, 0.86949253, 2.037547, 0.70349383, -1.7729397, 0
1013, 1240038386, -0.1076655, 0.4744872, -0.090269655, 0.8689773, 2.1094236, 0.7330086, -1.6752148, 0
1014, 1240055053, -0.10531976, 0.4767699, -0.08954983, 0.8680894, 2.0992506, 0.6584367, -1.8197932, 0
1015, 1240071720, -0.10194791, 0.47898683, -0.08894847, 0.86733305, 1.9307753, 0.49742687, -1.6371632, 0
1016, 1240088387, -0.09821079, 0.48111132, -0.08855571, 0.8666282, 1.9515501, 0.37400866, -1.4142599, 0
1017, 1240105054, -0.09414408, 0.48428112, -0.088164166, 0.8653529, 2.004888, 0.30038118, -1.1486378, 0
1018, 1240121721, -0.089738525, 0.48897484, -0.087697, 0.8632266, 1.7549107, 0.15646513, -1.1105804, 0
1019, 1240138388, -0.08505829, 0.49472985, -0.087329604, 0.8604541, 1.5466233, 0.033291586, -0.9442177, 0
1020, 1240155055, -0.0804444, 0.50106317, -0.0873915, 0.8572208, 1.3537431, -0.07152342, -0.7728586, 0
1021, 1240171722, -0.07622734, 0.50796765, -0.08783389, 0.8534891, 1.1350821, -0.10391402, -0.9582262, 0
1022, 1240188389, -0.07192249, 0.5151476, -0.08858755, 0.84947187, 1.115756, -0.062013306, -1.3356543, 0
1023, 1240205056, -0.06716519, 0.52209824, -0.089473106, 0.8455158, 1.1407682, 0.012967942, -1.7126017, 0
1024, 1240221723, -0.06168381, 0.5283191, -0.090415716, 0.8419615, 0.9797981, -0.04066293, -2.0076718, 0
1025, 1240238390, -0.05531072, 0.53361684, -0.091200076, 0.83897346, 0.8300008, -0.15028478, -1.9443712, 0
1026, 1240255057, -0.048588097, 0.53864825, -0.091872595, 0.83609617, 0.3854376, -0.36721057, -1.7459841, 0
1027, 1240271724, -0.041660808, 0.54372436, -0.09276666, 0.83308023, 0.05360357, -0.5513064, -1.1512585, 0
1028, 1240288391, -0.035237182, 0.5499303, -0.093752414, 0.82918376, -0.12044278, -0.5059816, -0.80542755, 0
1029, 1240305058, -0.029730797, 0.5579526, -0.094907865, 0.8238919, -0.2939168, -0.49674994, -0.7865906, 0
1030, 1240321725, -0.024363969, 0.5672988, -0.09609122, 0.8175237, -0.44643608, -0.41155958, -0.90812683, 0
1031, 1240338392, -0.018876944, 0.57673645, -0.09714186, 0.81091446, -0.49698794, -0.2961423, -1.0958385, 0
1032, 1240355059, -0.0127144065, 0.58498293, -0.097792216, 0.805028, -0.61672705, -0.17787185, -1.2758799, 0
1033, 1240371726, -0.0058533074, 0.5912102, -0.09804666, 0.80051434, -0.7428555, -0.16371346, -1.3208494, 0
1034, 1240388393, 0.0013704554, 0.5955345, -0.098017484, 0.79732645, -0.97584057, -0.21988842, -1.0465479, 0
1035, 1240405060, 0.008719631, 0.5984676, -0.097948186, 0.79508936, -1.3250788, -0.29723114, -0.43058395, 0
1036, 1240421727, 0.015484795, 0.6018349, -0.097837016, 0.7924538, -1.421012, -0.26634687, 0.18936634, 0
1037, 1240438394, 0.02146259, 0.60708785, -0.09773695, 0.7883091, -1.3562278, -0.22942965, 0.66445255, 0
1038, 1240455061, 0.026767112, 0.6151834, -0.09771925, 0.78184646, -1.4396946, -0.22837764, 0.8318882, 0
1039, 1240471728, 0.031824004, 0.62365437, -0.097602844, 0.7749298, -1.7436131, -0.113739625, 0.6052618, 0
1040, 1240488395, 0.036773972, 0.63040525, -0.09726384, 0.76927024, -1.7238352, 0.017963009, 0.589488, 0
1041, 1240505062, 0.04218301, 0.63514006, -0.096244484, 0.7652155, -1.5302134, 0.14547983, 0.65161705, 0
1042, 1240521729, 0.047855817, 0.6381926, -0.094727546, 0.7625266, -1.3315793, 0.23232988, 0.9548483, 0
1043, 1240538396, 0.053005986, 0.64159983, -0.09338174, 0.75948685, -1.2070094, 0.15652551, 1.4536533, 0
1044, 1240555063, 0.05735894, 0.64654213, -0.091796994, 0.75515985, -1.2089503, 0.13008337, 1.5873079, 0
1045, 1240571730, 0.061047822, 0.6519164, -0.09016069, 0.75043285, -1.4424828, 0.0033283315, 1.6547203, 0
1046, 1240588397, 0.06427573, 0.65636855, -0.08862062, 0.7464553, -1.3533095, -0.081654035, 2.001523, 0
1047, 1240605064, 0.0669017, 0.6596044, -0.08678876, 0.7435819, -1.0128204, 0.0147383325, 1.9206352, 0
1048, 1240621731, 0.06900064, 0.66262436, -0.08481971, 0.7409275, -0.64400023, 0.11394881, 1.7096424, 0
1049, 1240638398, 0.0711514, 0.6654064, -0.08248744, 0.7384901, -0.7034361, 0.12594363, 1.5742655, 0
1050, 1240655065, 0.07312866, 0.66768724, -0.08011208, 0.7364971, -0.33003852, 0.085808076, 1.7806101, 0
1051, 1240671732, 0.07498034, 0.6699586, -0.077883996, 0.73448455, -0.121850185, 0.008128105, 1.8995028, 0
1052, 1240688399, 0.07643875, 0.6724696, -0.0761224, 0.7322206, 0.09819421, -0.044154704, 1.8777714, 0
1053, 1240705066, 0.07744688, 0.67557216, -0.07474299, 0.7293955, 0.23153338, -0.045188062, 1.4593306, 0
1054, 1240721733, 0.07822687, 0.6787432, -0.07359312, 0.7264795, 0.21108937, -0.02907367, 0.94489574, 0
1055, 1240738400, 0.07886985, 0.68127054, -0.07256394, 0.72414416, 0.07662892, -0.07492261, 0.7622757, 0
1056, 1240755067, 0.0795163, 0.6827903, -0.07168109, 0.72272867, 0.20752038, -0.056392934, 0.70783615, 0
1057, 1240771734, 0.07996342, 0.6837249, -0.071082704, 0.7218542, 0.30280587, -0.0331539, 0.55424786, 0
1058, 1240788401, 0.08021004, 0.68469167, -0.070642754, 0.7209531, 0.20675623, 0.018008439, 0.3411436, 0
1059, 1240805068, 0.08040196, 0.68581724, -0.07021445, 0.71990305, 0.009507815, 0.025881963, 0.10968876, 0
1060, 1240821735, 0.08068718, 0.68685454, -0.06941038, 0.7189594, -0.06901919, 0.112557545, 0.16550446, 0
1061, 1240838402, 0.08104194, 0.6877686, -0.06826277, 0.7181552, -0.080853, 0.07051387, 0.28145313, 0
1062, 1240855069, 0.081506215, 0.6887035, -0.06682086, 0.71734184, 0.015623524, 0.04721443, 0.43572044, 0
1063, 1240871736, 0.08185494, 0.68951803, -0.065185934, 0.71667, 0.1142624, 0.034112882, 0.34827137, 0
1064, 1240888403, 0.08231676, 0.69018424, -0.0633805, 0.7161373, 0.20888971, 0.015722403, 0.20908737, 0
1065, 1240905070, 0.0828525, 0.6906894, -0.06161854, 0.7157423, 0.25090468, -0.027893076, 0.33845806, 0
1066, 1240921737, 0.08308846, 0.69102234, -0.060267944, 0.7155084, 0.18793812, -0.091661654, 0.73791885, 0
1067, 1240938404, 0.08317116, 0.6913197, -0.059125274, 0.71530694, 0.1973956, -0.073686354, 0.9514036, 0
1068, 1240955071, 0.083352454, 0.6919477, -0.05821293, 0.71475327, 0.42409956, -0.0876301, 0.8855829, 0
1069, 1240971738, 0.08359126, 0.69264054, -0.057491723, 0.7141123, 0.55848324, -0.036870584, 0.7025833, 0
1070, 1240988405, 0.083843276, 0.6930922, -0.057035897, 0.7136809, 0.5196946, -0.026029928, 0.5258436, 0
1071, 1241005072, 0.08423574, 0.69333106, -0.056659292, 0.7134327, 0.3044781, -0.019128462, 0.33476543, 0
1072, 1241021739, 0.084694915, 0.6935782, -0.056279622, 0.7131681, 0.12585805, -0.00780714, 0.22283363, 0
1073, 1241038406, 0.085233465, 0.69387794, -0.05577853, 0.7128517, 0.06558965, 0.001689255, 0.14537716, 0
1074, 1241055073, 0.085705556, 0.69417244, -0.0553527, 0.7125415, 0.083948895, 0.010901229, 0.26593876, 0
1075, 1241071740, 0.08621075, 0.6945728, -0.055042807, 0.7121143, 0.09351245, 0.039476242, 0.29312992, 0
1076, 1241088407, 0.08677374, 0.6948955, -0.054757565, 0.711753, 0.028189901, -0.01247532, 0.16018963, 0
1077, 1241105074, 0.08729704, 0.69474256, -0.054365456, 0.7118683, -0.005477957, -0.030056737, 0.29226303, 0
1078, 1241121741, 0.087473325, 0.69407266, -0.054259952, 0.71250796, -0.09238853, -0.024422701, 0.5670538, 0
1079, 1241138408, 0.08731097, 0.69352055, -0.05437867, 0.7130562, 0.01489945, 0.024713604, 0.5844126, 0
1080, 1241155075, 0.087153666, 0.6936576, -0.05461363, 0.7129241, 0.02593119, 0.08051032, 0.31638336, 0
1081, 1241171742, 0.08710423, 0.6940206, -0.054803055, 0.71256226, 0.024602992, 0.11323731, -0.05480385, 0
1082, 1241188409, 0.08708588, 0.6939338, -0.054929204, 0.71263933, -0.057297487, 0.12695654, -0.24021816, 0
1083, 1241205076, 0.08720007, 0.6933417, -0.054869458, 0.7132062, -0.13979824, 0.113247365, -0.23684597, 0
1084, 1241221743, 0.08741265, 0.6925122, -0.054742426, 0.71399516, -0.10802655, 0.047011536, -0.04211998, 0
1085, 1241238410, 0.087467484, 0.6912255, -0.054828025, 0.71522784, -0.057398252, 0.01670547, 0.25677872, 0
1086, 1241255077, 0.087272406, 0.6899167, -0.055095904, 0.71649367, 0.08930274, -0.044661745, 0.43182564, 0
1087, 1241271744, 0.08698064, 0.6889266, -0.055585027, 0.71744335, 0.09179507, -0.07961235, 0.956789, 0
1088, 1241288411, 0.08643884, 0.6887701, -0.056334205, 0.7176006, 0.27483043, -0.010996614, 1.5164118, 0
1089, 1241305078, 0.08600247, 0.6900839, -0.0575322, 0.7162946, 0.4489554, 0.04186085, 1.8709116, 0
1090, 1241321745, 0.0852558, 0.6922809, -0.059560925, 0.71409476, 0.13800313, 0.09078286, 2.5786648, 0
1091, 1241338412, 0.08445154, 0.69362366, -0.061711844, 0.7127034, -0.0036303464, 0.14924133, 3.24716, 0
1092, 1241355079, 0.0836734, 0.69273657, -0.06415534, 0.7134418, -0.19883692, 0.056466077, 4.0098763, 0
1093, 1241371746, 0.082534775, 0.68926126, -0.06688006, 0.71668273, -0.18403606, 0.12610042, 5.0244474, 0
1094, 1241388413, 0.08012229, 0.6851359, -0.07062927, 0.7205421, -0.11742428, 0.084054224, 5.5692406, 0
1095, 1241405080, 0.07681317, 0.6815843, -0.07517912, 0.72380304, -0.33550254, 0.027093403, 5.2395782, 0
1096, 1241421747, 0.072561555, 0.6783499, -0.08037187, 0.7267165, -0.5983255, -0.02071954, 4.5661983, 0
1097, 1241438414, 0.06753692, 0.6749715, -0.085796356, 0.72971994, -0.82272065, -0.039856046, 3.7852955, 0
1098, 1241455081, 0.062101923, 0.67110693, -0.091181725, 0.7331062, -1.0854028, -0.087876074, 3.0827513, 0
1099, 1241471748, 0.05670189, 0.6665548, -0.0959878, 0.7370726, -1.434414, -0.13121831, 2.460164, 0
1100, 1241488415, 0.051473986, 0.6609462, -0.09983107, 0.74198, -1.8216683, -0.13726439, 1.9621677, 0
1101, 1241505082, 0.04603347, 0.65365183, -0.10284789, 0.74836004, -1.9101683, -0.2671197, 1.5580521, 0
1102, 1241521749, 0.040559467, 0.64481497, -0.10534106, 0.75595766, -1.5838019, -0.31165254, 1.1370554, 0
1103, 1241538416, 0.03524547, 0.6347241, -0.10731466, 0.76443887, -1.3423886, -0.36620462, 0.44579887, 0
1104, 1241555083, 0.0295522, 0.6238411, -0.1092197, 0.7733177, -1.2282321, -0.29497477, -0.107951164, 0
1105, 1241571750, 0.023928445, 0.61259365, -0.110955864, 0.78220546, -0.87530464, -0.29434, -0.7180948, 0
1106, 1241588417, 0.01916226, 0.60184413, -0.11253377, 0.79041284, -0.13686566, -0.18518254, -1.1594114, 0
1107, 1241605084, 0.014660549, 0.59143746, -0.11401105, 0.7981155, -0.04944998, -0.094970755, -1.4874, 0
1108, 1241621751, 0.009773337, 0.5813875, -0.11534871, 0.8053494, -0.16506091, -0.074900836, -1.6925459, 0
1109, 1241638418, 0.0049817283, 0.5716653, -0.11656063, 0.81215006, -0.38376144, -0.20522162, -1.7461739, 0
1110, 1241655085, 1.8157996E-5, 0.5620038, -0.117394626, 0.81876165, -0.5221447, -0.16036393, -1.6574392, 0
1111, 1241671752, -0.00549086, 0.55286676, -0.11788963, 0.82486993, -0.4790539, -0.13610691, -1.808362, 0
1112, 1241688419, -0.011048691, 0.5447472, -0.11794536, 0.83019114, -0.33125788, -0.034219325, -2.0624566, 0
