DeviceTag:,Xsens DOT 5,,,,,,,,,,,,,,,,,
FirmwareVersion:,1.3.0,,,,,,,,,,,,,,,,,
AppVersion:,2020.1.1,,,,,,,,,,,,,,,,,
Measurement Mode:,Sensor fusion Mode - Extended (Quaternion),,,,,,,,,,,,,,,,,
StartTime:,2020-06-16 16:50:55.975 +0200,,,,,,,,,,,,,,,,,
© Xsens Technologies B. V. 2005-2020,,,,,,,,,,,,,,,,,,,
PacketCounter,SampleTimeFine,Quat_W,Quat_X,Quat_Y,Quat_Z,FreeAcc_X,FreeAcc_Y,FreeAcc_Z,Status
1, 945256762, 0.013703829, -0.8531054, -0.5214933, -0.008249962, -0.005936176, 0.00419596, -0.08671188, 0
2, 945273429, 0.013775847, -0.8531075, -0.5214883, -0.008231137, -0.010718047, 0.0069363336, -0.08532429, 0
3, 945290096, 0.01389421, -0.8531036, -0.52149266, -0.008170874, -0.0026904393, 0.004329432, -0.07444763, 0
4, 945306763, 0.013978656, -0.85310286, -0.5214918, -0.008151532, -0.013485521, 0.0059430697, -0.09004593, 0
5, 945323430, 0.014053401, -0.85310423, -0.5214883, -0.0081138285, 4.5759388E-4, 0.011742742, -0.07738018, 0
6, 945340097, 0.014130248, -0.85309607, -0.52149945, -0.00810771, -9.0035907E-4, 0.010117062, -0.0931797, 0
7, 945356764, 0.0141729405, -0.8530994, -0.52149284, -0.008114675, 0.01652555, 0.009124113, -0.07857323, 0
8, 945373431, 0.014208671, -0.85309875, -0.5214924, -0.008146077, 0.018751634, 5.073325E-4, -0.09221077, 0
9, 945390098, 0.014227996, -0.8530946, -0.52149814, -0.0081877, 0.014410467, -0.0038358734, -0.08145714, 0
10, 945406765, 0.014230674, -0.8530985, -0.521491, -0.008221381, 0.0045027523, -0.004963224, -0.0791626, 0
11, 945423432, 0.014238992, -0.85309523, -0.52149594, -0.008239463, -0.01448116, -0.001683276, -0.08852196, 0
12, 945440099, 0.014229347, -0.8530932, -0.5214992, -0.008253314, 0.004801722, -0.003736536, -0.09401417, 0
13, 945456766, 0.014224685, -0.85308176, -0.52151793, -0.008255459, -0.003656204, -0.0010833673, -0.06998539, 0
14, 945473433, 0.014225088, -0.8530639, -0.5215472, -0.0082635805, -0.0058349734, -0.0038549558, -0.08499622, 0
15, 945490100, 0.014224953, -0.85317826, -0.52136016, -0.008265094, 0.0028675105, 0.008328267, -0.08413315, 0
16, 945506767, 0.014222563, -0.8531154, -0.521463, -0.008270811, 0.002126202, -0.0044034147, -0.097750664, 0
17, 945523434, 0.014217128, -0.85314286, -0.5214179, -0.008287347, 6.015642E-4, 0.0028745374, -0.080955505, 0
18, 945540101, 0.014214421, -0.85305923, -0.5215547, -0.008284076, -0.012940926, 0.0046103736, -0.09990692, 0
19, 945556768, 0.014217241, -0.8530248, -0.52161086, -0.008291058, 0.008756022, 0.002523608, -0.088814735, 0
20, 945573435, 0.014224969, -0.85327494, -0.52120125, -0.008296483, 0.007816157, -0.008242355, -0.08189392, 0
21, 945590102, 0.014220189, -0.8533154, -0.52113485, -0.008305971, 0.012265361, -0.024156665, -0.083117485, 0
22, 945606769, 0.014217952, -0.8532971, -0.5211649, -0.0083144065, -0.0031848012, -0.023036607, -0.09127331, 0
23, 945623436, 0.014219186, -0.85317135, -0.52137095, -0.008308805, -0.0047553917, -0.0035021268, -0.095648766, 0
24, 945640103, 0.014198891, -0.85322195, -0.5212883, -0.00831236, -0.006371733, 0.0014862773, -0.093131065, 0
25, 945656770, 0.014196344, -0.8532571, -0.5212308, -0.008317399, -0.0062838574, 0.006746501, -0.08997345, 0
26, 945673437, 0.0141986525, -0.85324633, -0.52124864, -0.008316052, 0.016793828, 0.0075227614, -0.07531452, 0
27, 945690104, 0.014186253, -0.8531717, -0.52137107, -0.008316407, -0.004363329, -0.0058463234, -0.07767296, 0
28, 945706771, 0.014190567, -0.8531179, -0.5214589, -0.008318104, 0.006416498, -1.8825379E-4, -0.06923199, 0
29, 945723438, 0.014184073, -0.8531062, -0.5214781, -0.008324722, 0.012170483, -0.0059514446, -0.08654499, 0
30, 945740105, 0.014184329, -0.8533797, -0.5210305, -0.008322129, 0.0091578355, -0.013156342, -0.07498646, 0
31, 945756772, 0.0141816335, -0.85344476, -0.52092385, -0.0083249435, -0.007752659, 0.0031806172, -0.075237274, 0
32, 945773439, 0.014175103, -0.8533708, -0.52104527, -0.008324518, -0.0034471774, -0.0062530753, -0.0873785, 0
33, 945790106, 0.014190203, -0.85337925, -0.52103114, -0.0083167115, 0.00285908, -0.0076595517, -0.08858967, 0
34, 945806773, 0.014177926, -0.8533515, -0.521077, -0.008311935, 0.005182581, 0.008841949, -0.07908821, 0
35, 945823440, 0.014167413, -0.85330474, -0.52115375, -0.008305733, 0.009835849, 0.0057822173, -0.09726715, 0
36, 945840107, 0.014165026, -0.85335046, -0.52107924, -0.008307697, -0.0024852476, 2.4921694E-4, -0.091077805, 0
37, 945856774, 0.014160764, -0.85340625, -0.52098763, -0.008311325, 0.006494169, -0.009046268, -0.095191, 0
38, 945873441, 0.01415726, -0.85339296, -0.52100974, -0.008307777, -0.0024013394, -0.0071003223, -0.09210968, 0
39, 945890108, 0.014149813, -0.8533668, -0.5210528, -0.0083121, -7.6122925E-4, -0.0054605543, -0.09287834, 0
40, 945906775, 0.01414144, -0.853455, -0.5209085, -0.008312752, 0.01991418, 0.0032074319, -0.082250595, 0
41, 945923442, 0.0141347945, -0.8535191, -0.5208037, -0.008312237, -0.001053633, -0.0014384525, -0.09763336, 0
42, 945940109, 0.014119312, -0.8533175, -0.5211345, -0.008299671, -9.930052E-4, 0.00822402, -0.09858322, 0
43, 945956776, 0.014117742, -0.85343593, -0.52094024, -0.0083069075, -0.013653163, 0.006831408, -0.09166241, 0
44, 945973443, 0.01412946, -0.8530603, -0.52155524, -0.008293306, -0.003310108, -0.0027831553, -0.094062805, 0
45, 945990110, 0.01413043, -0.85284835, -0.5219017, -0.008292254, 1.6818651E-4, -0.007184265, -0.08322716, 0
46, 946006777, 0.01412586, -0.8528242, -0.5219411, -0.008293843, 0.0016572368, -0.016541362, -0.094804764, 0
47, 946023444, 0.014117833, -0.8528875, -0.5218379, -0.00829034, 0.012134463, -0.004235228, -0.088671684, 0
48, 946040111, 0.014115862, -0.85286117, -0.52188116, -0.008293393, 0.020367276, 0.013548881, -0.089764595, 0
49, 946056778, 0.014119883, -0.85286003, -0.521883, -0.00829233, 0.0070735775, 5.738136E-4, -0.08219528, 0
50, 946073445, 0.014110686, -0.85299385, -0.521664, -0.008311317, 0.0014554744, 0.0073209573, -0.08182526, 0
51, 946090112, 0.014100758, -0.8530176, -0.52162534, -0.008322159, 0.0028359813, -0.003272481, -0.078829765, 0
52, 946106779, 0.014104851, -0.85268676, -0.52216613, -0.008308859, -0.0011807282, 0.0026082983, -0.08761501, 0
53, 946123446, 0.014104583, -0.8527477, -0.5220664, -0.008319208, 0.004326743, -0.014592498, -0.07144451, 0
54, 946140113, 0.014108691, -0.85266584, -0.52219987, -0.008319071, -0.008584336, 0.020514425, -0.08528423, 0
55, 946156780, 0.014101553, -0.8526378, -0.5222457, -0.008323586, -0.005625814, 0.0015807814, -0.075805664, 0
56, 946173447, 0.014092904, -0.85267437, -0.52218634, -0.008323467, -0.008589847, -0.005739135, -0.0966444, 0
57, 946190114, 0.014084439, -0.8526016, -0.52230537, -0.0083217155, 0.0115519175, -0.011530307, -0.07448387, 0
58, 946206781, 0.014078705, -0.85269374, -0.5221549, -0.008328461, -0.012643115, 0.008602371, -0.0696373, 0
59, 946223448, 0.014080388, -0.85268116, -0.5221756, -0.008329863, -0.009394452, 0.008533194, -0.07135105, 0
60, 946240115, 0.014081464, -0.8526694, -0.52219456, -0.008335284, -0.010176755, -0.007099938, -0.07970619, 0
61, 946256782, 0.014093184, -0.85271806, -0.5221148, -0.008345821, -0.0034782598, 0.0032989813, -0.0843811, 0
62, 946273449, 0.014078197, -0.85273534, -0.52208686, -0.008349413, -0.0052157165, -5.273369E-4, -0.08067036, 0
63, 946290116, 0.01408254, -0.8528695, -0.52186716, -0.008359999, -3.09775E-4, 0.00634262, -0.087327, 0
64, 946306783, 0.014083378, -0.8528826, -0.5218461, -0.008354422, 0.0017732889, 0.0017762434, -0.09858608, 0
65, 946323450, 0.014082592, -0.85285175, -0.5218963, -0.008368493, 0.001324419, 0.0025787947, -0.103321075, 0
66, 946340117, 0.01406659, -0.852975, -0.52169496, -0.008374002, -0.008150212, -0.01087408, -0.07528782, 0
67, 946356784, 0.014073968, -0.8530715, -0.5215369, -0.0083757015, -0.011103278, 0.0081675965, -0.07910538, 0
68, 946373451, 0.014073667, -0.85298485, -0.5216787, -0.0083741015, -0.0022103265, -0.0044249557, -0.10300064, 0
69, 946390118, 0.014066259, -0.8529642, -0.5217127, -0.00836711, -0.006847019, 0.0073301774, -0.09811878, 0
70, 946406785, 0.014058651, -0.8529029, -0.5218131, -0.008368385, -0.011852557, -0.0076176566, -0.092980385, 0
71, 946423452, 0.014058504, -0.85294163, -0.5217498, -0.008370901, -0.0066293734, -0.0032659713, -0.080477715, 0
72, 946440119, 0.014071372, -0.8526953, -0.5221521, -0.008355614, -0.0058527566, 0.009680779, -0.08880043, 0
73, 946456786, 0.014058569, -0.85278803, -0.5220013, -0.008349863, -0.0074975956, 0.006616095, -0.090008736, 0
74, 946473453, 0.014064804, -0.8526755, -0.52218497, -0.00834462, -0.018754197, -0.0076568555, -0.074754715, 0
75, 946490120, 0.014065249, -0.8524982, -0.5224746, -0.008342885, -0.005914851, -0.02339506, -0.079930305, 0
76, 946506787, 0.014067784, -0.8523804, -0.5226665, -0.00833963, -0.0061776396, -0.008734649, -0.087127686, 0
77, 946523454, 0.014075068, -0.85234386, -0.5227256, -0.008344078, -0.005763554, -0.007791424, -0.07837868, 0
78, 946540121, 0.014077597, -0.8523823, -0.52266306, -0.008347131, 0.008210832, 0.0020722095, -0.09587383, 0
79, 946556788, 0.014078349, -0.8523111, -0.5227793, -0.008337041, 0.002323033, 0.006228384, -0.09842014, 0
80, 946573455, 0.014084255, -0.8523148, -0.5227729, -0.008340769, -0.0066688373, 1.4564663E-4, -0.09233189, 0
81, 946590122, 0.014083473, -0.8523421, -0.5227285, -0.008338478, -0.004491884, -0.0072632143, -0.10170555, 0
82, 946606789, 0.014073978, -0.8522958, -0.522804, -0.008345263, 0.0012699168, 0.0023803222, -0.07332516, 0
83, 946623456, 0.014064045, -0.8522584, -0.5228655, -0.008341598, -0.002459327, 0.016683957, -0.088965416, 0
84, 946640123, 0.01405754, -0.85225654, -0.5228688, -0.008328612, -0.0063015358, 0.008503062, -0.088225365, 0
85, 946656790, 0.014066662, -0.85226065, -0.52286184, -0.008328754, -7.5926655E-4, -0.013041932, -0.09346771, 0
86, 946673457, 0.014052831, -0.8522596, -0.5228639, -0.008331158, -0.0021602178, 0.009991113, -0.08289528, 0
87, 946690124, 0.014058724, -0.85223174, -0.5229089, -0.008340881, -0.0066551333, 0.0026803394, -0.0957365, 0
88, 946706791, 0.014066723, -0.85220265, -0.5229562, -0.008338135, -0.003472127, -0.01008978, -0.0821867, 0
89, 946723458, 0.014060415, -0.8519968, -0.5232918, -0.008339242, -0.0014011748, -7.335136E-4, -0.09025669, 0
90, 946740125, 0.014050487, -0.852069, -0.5231745, -0.008342673, 0.0010973928, 0.0064013973, -0.07319546, 0
91, 946756792, 0.014035696, -0.85219467, -0.5229702, -0.008344555, -0.009713656, 9.537717E-4, -0.08960438, 0
92, 946773459, 0.014040259, -0.8521468, -0.52304804, -0.008340643, -0.009802558, -0.005282603, -0.07571411, 0
93, 946790126, 0.014047294, -0.85214084, -0.52305764, -0.008338534, -0.0064378157, 0.008740824, -0.07890701, 0
94, 946806793, 0.014050785, -0.8520531, -0.52320033, -0.0083357375, -0.012851856, 7.013417E-4, -0.08780193, 0
95, 946823460, 0.014041828, -0.8520445, -0.5232145, -0.0083424, -0.00962465, 0.006533675, -0.07773495, 0
96, 946840127, 0.014043473, -0.8519833, -0.5233142, -0.00834091, -0.015106801, -0.013331787, -0.07746029, 0
97, 946856794, 0.014049841, -0.8518825, -0.5234781, -0.008345494, -0.009927495, -0.0026897269, -0.08761215, 0
98, 946873461, 0.014053714, -0.8520613, -0.5231866, -0.008353877, 0.0022907914, -7.959366E-4, -0.09962654, 0
99, 946890128, 0.01405565, -0.8521568, -0.5230308, -0.008365992, -5.5248215E-4, 0.007384735, -0.0876112, 0
100, 946906795, 0.014056809, -0.8521161, -0.5230974, -0.008350463, 0.004206053, 0.004941082, -0.08761406, 0
101, 946923462, 0.014063075, -0.851967, -0.5233403, -0.008344237, 5.651525E-4, -0.015278311, -0.0877676, 0
102, 946940129, 0.014063982, -0.8519464, -0.52337366, -0.008336938, -1.0551208E-4, 4.3601092E-4, -0.089315414, 0
103, 946956796, 0.014065162, -0.8520281, -0.52324086, -0.008336703, -0.0024962695, -0.0057674865, -0.081272125, 0
104, 946973463, 0.014052136, -0.8521391, -0.5230604, -0.008337367, -4.113756E-4, -3.6644252E-4, -0.08293533, 0
105, 946990130, 0.014049623, -0.8520247, -0.5232469, -0.008328817, 0.0018104061, 0.0022589825, -0.0820055, 0
106, 947006797, 0.0140506625, -0.8520514, -0.5232033, -0.008327226, -0.009657498, -0.0015945554, -0.0887661, 0
107, 947023464, 0.014058404, -0.85204834, -0.5232081, -0.0083269235, 0.00595991, 0.0034509632, -0.076304436, 0
108, 947040131, 0.014064441, -0.8520867, -0.5231454, -0.008323119, 1.958672E-4, 0.013133858, -0.09543228, 0
109, 947056798, 0.014063395, -0.85210484, -0.52311605, -0.008319862, 0.0056669684, -0.0048856162, -0.098332405, 0
110, 947073465, 0.014060883, -0.8522216, -0.522926, -0.00831376, -0.00435515, -0.004465293, -0.08494949, 0
111, 947090132, 0.014064493, -0.8522386, -0.52289814, -0.008317747, 2.6450664E-4, -0.0036311846, -0.07354355, 0
112, 947106799, 0.014071516, -0.8522525, -0.5228753, -0.008312418, -0.0017729956, -0.0014119453, -0.092391014, 0
113, 947123466, 0.014076247, -0.85229826, -0.52280074, -0.008301746, -0.0038197455, 1.4000293E-4, -0.10394287, 0
114, 947140133, 0.014071011, -0.8523428, -0.52272826, -0.008302287, -8.840147E-4, -0.008792246, -0.087257385, 0
115, 947156800, 0.014080155, -0.852202, -0.52295774, -0.008296846, 0.008538006, -0.0024697762, -0.086128235, 0
116, 947173467, 0.014085788, -0.852185, -0.52298516, -0.008297829, -0.00649236, 0.002282626, -0.07881451, 0
117, 947190134, 0.014095683, -0.8521857, -0.52298373, -0.008295755, -0.0019923595, 0.0022045851, -0.091477394, 0
118, 947206801, 0.014100628, -0.85211664, -0.5230962, -0.0082913665, -6.465741E-4, -3.5486175E-4, -0.07999897, 0
119, 947223468, 0.014108168, -0.85202247, -0.5232502, -0.008244168, -0.002383668, -0.0013786769, -0.07436371, 0
120, 947240135, 0.014110007, -0.8520594, -0.52318984, -0.008248012, 1.8634694E-4, 0.0066167517, -0.08825874, 0
121, 947256802, 0.014117297, -0.85203785, -0.52322495, -0.0082468, -0.002539121, 0.003401504, -0.07997131, 0
122, 947273469, 0.014116017, -0.85208297, -0.5231516, -0.008244777, 0.0024582932, -0.0033910407, -0.088765144, 0
123, 947290136, 0.014116783, -0.85207087, -0.5231713, -0.008245359, 0.0063182013, 0.0045136134, -0.09074783, 0
124, 947306803, 0.014109857, -0.8521089, -0.5231093, -0.00824821, 0.0010267347, -2.8886955E-4, -0.088965416, 0
125, 947323470, 0.014099421, -0.8520375, -0.52322596, -0.008246713, 5.0419633E-4, -0.0067050466, -0.088347435, 0
126, 947340137, 0.014096999, -0.85205567, -0.5231961, -0.008266234, 7.454995E-4, 0.0035045645, -0.08763695, 0
127, 947356804, 0.014094286, -0.8520152, -0.5232621, -0.008260935, -0.0057742824, -0.0037963395, -0.07597542, 0
128, 947373471, 0.014082537, -0.8520957, -0.52313113, -0.0082709035, -0.0040803407, -0.004325025, -0.090613365, 0
129, 947390138, 0.014087724, -0.85209626, -0.5231303, -0.008258765, -0.008796869, -0.0037508546, -0.07728195, 0
130, 947406805, 0.014088315, -0.8521967, -0.5229667, -0.008256672, -0.003934331, -0.006660993, -0.076210976, 0
131, 947423472, 0.014095007, -0.8522107, -0.5229437, -0.008258519, 0.0050789756, 0.0029986498, -0.08530903, 0
132, 947440139, 0.014101479, -0.85232085, -0.522764, -0.008259266, 0.0041755433, -0.008317853, -0.089056015, 0
133, 947456806, 0.014114159, -0.85229033, -0.5228135, -0.008255306, -9.059399E-4, -0.01000664, -0.0730629, 0
134, 947473473, 0.01411064, -0.85219276, -0.5229726, -0.008254246, 0.011480736, 0.00346209, -0.09196472, 0
135, 947490140, 0.014108493, -0.85222954, -0.52291274, -0.008252625, -0.011640345, -0.007525283, -0.09394932, 0
136, 947506807, 0.0141058, -0.85229427, -0.52280724, -0.008264251, -0.0031942865, -0.004673677, -0.06832123, 0
137, 947523474, 0.014091984, -0.85247296, -0.52251595, -0.008281637, -0.020115322, 0.007472164, -0.08863258, 0
138, 947540141, 0.014093298, -0.8524333, -0.5225804, -0.008275735, -8.198106E-4, 0.0039970684, -0.100530624, 0
139, 947556808, 0.014106047, -0.8523999, -0.52263474, -0.008263976, -0.013091231, -0.0029735325, -0.08049774, 0
140, 947573475, 0.014104554, -0.85246927, -0.5225217, -0.008270027, -0.009376669, 0.0083625, -0.07227802, 0
141, 947590142, 0.014106472, -0.852407, -0.52262336, -0.008268512, -0.0062123053, 0.0077079423, -0.09331703, 0
142, 947606809, 0.014119438, -0.8523223, -0.5227613, -0.008261242, 0.0039560534, 0.011844699, -0.07504177, 0
143, 947623476, 0.014124348, -0.8523473, -0.52272016, -0.008264576, -0.00382226, -0.007486385, -0.09743786, 0
144, 947640143, 0.014128917, -0.85230833, -0.5227836, -0.008261945, -0.008644434, 0.0019038555, -0.08828068, 0
145, 947656810, 0.014141593, -0.8523917, -0.52264726, -0.008262749, -6.610675E-4, 0.0010753209, -0.07592201, 0
146, 947673477, 0.014134622, -0.85240746, -0.5226215, -0.008271448, 0.0049708723, 0.009162285, -0.09338474, 0
147, 947690144, 0.014140384, -0.85235447, -0.5227079, -0.00826501, 0.015337179, -0.0084572695, -0.09257412, 0
148, 947706811, 0.014138425, -0.85218006, -0.52299225, -0.008275438, 0.014768374, -0.015356835, -0.09522915, 0
149, 947723478, 0.01414321, -0.8521863, -0.522982, -0.008272497, -0.0024773618, -0.013242849, -0.08430576, 0
150, 947740145, 0.014149571, -0.85220563, -0.5229504, -0.00826644, 0.014931622, 0.0017238925, -0.07793331, 0
151, 947756812, 0.014139477, -0.85213304, -0.5230692, -0.008260899, -0.011466438, 0.022789242, -0.082494736, 0
152, 947773479, 0.01413279, -0.852106, -0.5231132, -0.008262862, -0.0099693695, 0.00786475, -0.0924263, 0
153, 947790146, 0.014144766, -0.8521137, -0.52310044, -0.00825881, -0.010428597, 0.0015302675, -0.08914566, 0
154, 947806813, 0.014138576, -0.85205525, -0.5231956, -0.008266731, -0.010439787, -0.004771722, -0.06524086, 0
155, 947823480, 0.014141749, -0.8520878, -0.5231424, -0.008273785, 0.0024755597, 0.0029450066, -0.0860405, 0
156, 947840147, 0.014152648, -0.8520971, -0.5231269, -0.008276604, 0.008693732, -0.01732947, -0.08878994, 0
157, 947856814, 0.014161492, -0.8520981, -0.5231251, -0.008271078, 0.0068688467, 0.009842498, -0.08719158, 0
158, 947873481, 0.014158743, -0.85219467, -0.52296776, -0.008283833, 0.013081983, -0.004777673, -0.07441616, 0
159, 947890148, 0.014155992, -0.85219634, -0.5229651, -0.008287982, 0.0041450127, -0.0028827095, -0.066617966, 0
160, 947906815, 0.014166031, -0.85214937, -0.52304125, -0.00828559, 0.0034096134, -0.009977814, -0.0911932, 0
161, 947923482, 0.014165361, -0.8521803, -0.522991, -0.008278539, 0.0060793357, -0.009508193, -0.092746735, 0
162, 947940149, 0.014180098, -0.8521703, -0.52300674, -0.008284314, 0.00949226, -0.0014448226, -0.08920193, 0
163, 947956816, 0.014190125, -0.85216874, -0.5230091, -0.008279007, 0.0047963504, 1.9717334E-4, -0.080039024, 0
164, 947973483, 0.014193955, -0.85216045, -0.5230226, -0.008277476, -0.013966382, -0.010937474, -0.106357574, 0
165, 947990150, 0.0141994655, -0.8521783, -0.5229936, -0.008262001, -0.006876006, -0.0075460766, -0.07992172, 0
166, 948006817, 0.014190143, -0.8522682, -0.52284706, -0.008266788, 0.004979317, 1.4034518E-4, -0.076607704, 0
167, 948023484, 0.014182641, -0.85223633, -0.5228997, -0.008256943, 0.007273782, -9.764723E-6, -0.07854462, 0
168, 948040151, 0.014180267, -0.852355, -0.5227061, -0.008259211, 0.009542166, -9.906513E-5, -0.087542534, 0
169, 948056818, 0.01418349, -0.8523743, -0.5226746, -0.008252111, -0.007870066, -0.0053859637, -0.08193493, 0
170, 948073485, 0.014183736, -0.8523724, -0.5226777, -0.008247036, 0.004470224, -0.017546438, -0.082585335, 0
171, 948090152, 0.014170166, -0.8523847, -0.5226581, -0.008249972, 0.0138030145, -3.1501356E-6, -0.06706905, 0
172, 948106819, 0.014172376, -0.8523965, -0.52263886, -0.0082504805, -0.009738557, -0.0017237179, -0.08292484, 0
173, 948123486, 0.014173762, -0.8523881, -0.5226525, -0.008252117, 0.0074934536, -0.004653379, -0.08753872, 0
174, 948140153, 0.014156912, -0.85237473, -0.5226748, -0.008252226, -3.2116717E-4, -0.0025789344, -0.07786083, 0
175, 948156820, 0.014159415, -0.8524106, -0.52261627, -0.008251145, 0.0028074344, -0.0074756006, -0.07601738, 0
176, 948173487, 0.014147965, -0.852456, -0.5225423, -0.008255851, -0.0072117015, 0.0032649515, -0.09842205, 0
177, 948190154, 0.014140789, -0.85244286, -0.522564, -0.008252211, -0.008361606, 0.007736817, -0.08528137, 0
178, 948206821, 0.014143517, -0.8524309, -0.52258354, -0.008252495, -5.8386475E-4, -0.0052851033, -0.08407593, 0
179, 948223488, 0.014145939, -0.8523905, -0.52264947, -0.008244407, 0.014869123, -0.0059827296, -0.07436752, 0
180, 948240155, 0.014152337, -0.8524222, -0.5225976, -0.008246141, -0.006190324, 0.0059533515, -0.08575249, 0
181, 948256822, 0.014157117, -0.8523293, -0.52274895, -0.008247486, 6.1355706E-4, -9.206778E-4, -0.09139824, 0
182, 948273489, 0.014161095, -0.85226035, -0.52286124, -0.008243436, 0.0026359372, -7.150948E-4, -0.08481884, 0
183, 948290156, 0.014164838, -0.8521835, -0.52298635, -0.0082391435, 0.0019146819, -0.01244092, -0.093286514, 0
184, 948306823, 0.014167063, -0.852191, -0.5229741, -0.008242958, 0.0014727408, -0.00942316, -0.07570267, 0
185, 948323490, 0.014161586, -0.85220957, -0.5229438, -0.008258038, -0.0051927995, 0.0070391633, -0.072639465, 0
186, 948340157, 0.014158262, -0.85230815, -0.52278304, -0.008267261, 0.0070666205, -0.0018271905, -0.08119106, 0
187, 948356824, 0.014155297, -0.85241604, -0.5226073, -0.008266356, 0.00674655, -0.003953218, -0.09125614, 0
188, 948373491, 0.014143313, -0.85251236, -0.5224504, -0.008273645, 0.0034184142, -0.0035881232, -0.090724945, 0
189, 948390158, 0.014145083, -0.852555, -0.52238053, -0.008277976, -4.8894854E-4, 0.00444158, -0.0803957, 0
190, 948406825, 0.014148337, -0.8525325, -0.5224172, -0.008271953, -0.011921126, -0.006706995, -0.078318596, 0
191, 948423492, 0.014148554, -0.85258186, -0.52233654, -0.008276645, -0.007043403, 0.017140664, -0.091311455, 0
192, 948440159, 0.014150051, -0.85264635, -0.52223134, -0.008273754, 0.0011406215, -0.015767526, -0.082125664, 0
193, 948456826, 0.014141151, -0.8526986, -0.5221464, -0.008275536, 0.0016495605, -3.0130942E-4, -0.078715324, 0
194, 948473493, 0.0141497245, -0.85257775, -0.5223433, -0.008276193, 1.5760458E-4, -0.0063382825, -0.08217049, 0
195, 948490160, 0.014148578, -0.8526086, -0.5222931, -0.008268705, -0.0018071022, -0.0090634925, -0.09508133, 0
196, 948506827, 0.014144963, -0.8526022, -0.5223038, -0.0082611935, -2.743901E-4, -0.0019865343, -0.0854435, 0
197, 948523494, 0.014142026, -0.85268176, -0.52217406, -0.008261595, -0.008144281, 0.006363693, -0.08134937, 0
198, 948540161, 0.014145093, -0.85266864, -0.5221956, -0.008254124, -0.0027669577, 0.010063657, -0.0930872, 0
199, 948556828, 0.01413681, -0.85272086, -0.52211034, -0.008253707, -0.0042208536, 6.201088E-5, -0.08805847, 0
200, 948573495, 0.014127116, -0.8527623, -0.5220429, -0.008259478, -6.138225E-5, 0.0016280405, -0.07762432, 0
201, 948590162, 0.014123705, -0.8525972, -0.5223127, -0.008261029, 0.0030222165, -0.0021388794, -0.09634781, 0
202, 948606829, 0.014122204, -0.8524202, -0.5226013, -0.008256213, 0.001125744, -0.011529727, -0.08275986, 0
203, 948623496, 0.014127305, -0.8523849, -0.522659, -0.008252582, 0.006926066, 6.624575E-4, -0.08906746, 0
204, 948640163, 0.014120508, -0.85226923, -0.52284783, -0.00823885, 0.008913487, -0.0038975142, -0.09447479, 0
205, 948656830, 0.014109856, -0.85237384, -0.52267766, -0.008241746, 0.0043975473, 7.42056E-4, -0.09206104, 0
206, 948673497, 0.014117623, -0.85238683, -0.5226563, -0.0082380865, -0.001973326, -0.0046903635, -0.0900383, 0
207, 948690164, 0.014113987, -0.85252285, -0.52243423, -0.008255948, -0.0038000764, -0.006757558, -0.082520485, 0
208, 948706831, 0.0141056795, -0.8527917, -0.5219953, -0.008263777, 0.006983404, -0.009873748, -0.07998085, 0
209, 948723498, 0.014115859, -0.85279065, -0.52199674, -0.008265309, -0.010136033, -0.012740734, -0.080714226, 0
210, 948740165, 0.014116897, -0.85280377, -0.5219753, -0.008267532, -0.0118872365, -0.004164479, -0.07793331, 0
211, 948756832, 0.014111752, -0.85279804, -0.5219848, -0.008261038, 0.002725426, -0.009135519, -0.08598328, 0
212, 948773499, 0.01413151, -0.8526899, -0.52216095, -0.008256075, 0.0047041024, 0.010115079, -0.088786125, 0
213, 948790166, 0.014129937, -0.85256624, -0.52236295, -0.008256205, -0.006357295, -0.0011530893, -0.10163307, 0
214, 948806833, 0.014126081, -0.8526337, -0.52225256, -0.0082724225, -0.010772612, 0.00507746, -0.09044933, 0
215, 948823500, 0.014134207, -0.8525395, -0.52240634, -0.008269353, 0.020562347, -0.008677374, -0.07820988, 0
216, 948840167, 0.014142255, -0.85251606, -0.5224445, -0.00826584, 0.0040406673, -0.009882877, -0.08111954, 0
217, 948856834, 0.014149007, -0.8524566, -0.5225413, -0.008261011, 0.012547989, -0.003145826, -0.0708704, 0
218, 948873501, 0.014144618, -0.85241383, -0.5226112, -0.008260244, -4.0751998E-4, 0.0059179594, -0.0908432, 0
219, 948890168, 0.014137074, -0.8526279, -0.5222617, -0.008278885, -0.011207603, 7.384589E-4, -0.096429825, 0
220, 948906835, 0.01414052, -0.8526501, -0.52222514, -0.008285525, -5.378979E-4, -0.0071327942, -0.091566086, 0
221, 948923502, 0.014137692, -0.8526241, -0.5222677, -0.008285039, 0.004452469, 4.950183E-4, -0.085344315, 0
222, 948940169, 0.014144503, -0.8526311, -0.52225614, -0.008286053, -0.011951489, 0.0030190314, -0.09204769, 0
223, 948956836, 0.014146937, -0.8526621, -0.52220553, -0.008281447, -0.006431229, -0.006544606, -0.06107235, 0
224, 948973503, 0.014137858, -0.85276043, -0.5220451, -0.008288507, 0.0058097164, 0.0017860851, -0.09150696, 0
225, 948990170, 0.014143452, -0.85268074, -0.52217513, -0.008286316, 0.009529936, 0.0054453206, -0.072626114, 0
226, 949006837, 0.014141937, -0.85276085, -0.5220443, -0.008293861, 0.005260978, -0.00864259, -0.07576656, 0
227, 949023504, 0.014146735, -0.8527264, -0.52210045, -0.008293041, 0.008627174, -0.010353281, -0.09334755, 0
228, 949040171, 0.014156824, -0.85275555, -0.52205276, -0.008286333, -0.008408005, -0.021498399, -0.074855804, 0
229, 949056838, 0.014165359, -0.8526262, -0.5222639, -0.008281331, 0.0074566994, 0.0063588875, -0.08819294, 0
230, 949073505, 0.014175185, -0.8527883, -0.5219986, -0.00827753, -0.0026694222, 0.0018977228, -0.08433437, 0
231, 949090172, 0.014171074, -0.85280263, -0.5219755, -0.008281226, -0.0012772578, 0.0045154854, -0.08664894, 0
232, 949106839, 0.01417428, -0.85280704, -0.5219682, -0.008280438, 0.004735017, 0.017692713, -0.09329891, 0
233, 949123506, 0.014176205, -0.8527246, -0.52210265, -0.008282563, 0.001424972, -0.0077308174, -0.09494209, 0
234, 949140173, 0.014162127, -0.8527418, -0.5220751, -0.00827391, -0.0011392176, -0.005517955, -0.07909107, 0
235, 949156840, 0.014153325, -0.8527517, -0.52205914, -0.008270264, 0.0014041223, -0.00446062, -0.0813303, 0
236, 949173507, 0.014151047, -0.85272986, -0.52209496, -0.008264597, -2.8877874E-4, -0.0055512027, -0.08758354, 0
237, 949190174, 0.014148913, -0.8527336, -0.5220887, -0.008272984, 0.005810827, 0.0038459175, -0.07404041, 0
238, 949206841, 0.014148324, -0.8526729, -0.52218807, -0.008270609, -0.0037994338, -1.919697E-4, -0.08676815, 0
239, 949223508, 0.014092708, -0.8526376, -0.5222476, -0.008249248, 0.003660346, 0.004688345, -0.09125042, 0
240, 949240175, 0.0141025875, -0.85260797, -0.52229583, -0.008245122, 0.011145893, 0.006351561, -0.08383274, 0
241, 949256842, 0.014104668, -0.8525965, -0.5223144, -0.008254798, -0.0094781155, -0.009279651, -0.073244095, 0
242, 949273509, 0.014091874, -0.8525093, -0.5224569, -0.008256537, -0.0042085745, -2.9636422E-4, -0.07263279, 0
243, 949290176, 0.014102598, -0.8524702, -0.52252024, -0.008258439, -0.009332839, 0.008412469, -0.08423805, 0
244, 949306843, 0.014101621, -0.8525103, -0.52245474, -0.008266186, -0.00617245, 0.012701906, -0.07272816, 0
245, 949323510, 0.014104295, -0.8524874, -0.522492, -0.008262664, -0.013973499, 0.0027763941, -0.09040451, 0
246, 949340177, 0.014100468, -0.8525295, -0.52242357, -0.0082718, -0.0020976411, 0.0022544635, -0.08061886, 0
247, 949356844, 0.014102879, -0.8525, -0.52247137, -0.008269897, 8.14146E-5, -0.002906325, -0.08479023, 0
248, 949373511, 0.0140984, -0.8524814, -0.5225019, -0.008269987, 0.0031191164, -0.0042773956, -0.06399727, 0
249, 949390178, 0.014091272, -0.85249203, -0.52248466, -0.008274413, 0.0025731998, -0.017911058, -0.08877754, 0
250, 949406845, 0.014090395, -0.85247284, -0.5225161, -0.008281555, 0.0070409444, -0.008441051, -0.08251381, 0
251, 949423512, 0.014087087, -0.8524709, -0.52251923, -0.008288182, -0.007786856, 0.0019162464, -0.09762859, 0
252, 949440179, 0.014080504, -0.8524543, -0.5225466, -0.008280753, -0.0061079664, -0.008685385, -0.08712673, 0
253, 949456846, 0.014083946, -0.85243034, -0.5225856, -0.008281651, -0.004939252, 0.004725427, -0.095383644, 0
254, 949473513, 0.0140812965, -0.8524109, -0.5226174, -0.008281648, -0.005214061, -0.0045494107, -0.083854675, 0
255, 949490180, 0.014076923, -0.8524011, -0.52263343, -0.008285885, 0.0015588632, 0.0013480346, -0.08608246, 0
256, 949506847, 0.0140677355, -0.8524517, -0.522551, -0.008294527, -0.0039583095, 0.002548006, -0.0873127, 0
257, 949523514, 0.014068341, -0.8524002, -0.522635, -0.008291787, -0.0014325224, 0.005241309, -0.088347435, 0
258, 949540181, 0.014063596, -0.85243195, -0.5225833, -0.008291031, 0.0015783926, -0.0098546585, -0.09878254, 0
259, 949556848, 0.01405337, -0.852444, -0.5225639, -0.008298137, 0.014985007, 0.0027084672, -0.09200668, 0
260, 949573515, 0.0140583515, -0.8524511, -0.5225522, -0.0082958015, -0.0048523196, 0.016237063, -0.08450508, 0
261, 949590182, 0.014055027, -0.8524557, -0.5225447, -0.008298222, -0.008544558, -6.0509145E-4, -0.08782959, 0
262, 949606849, 0.014058981, -0.85247815, -0.52250785, -0.008303056, -0.0063966056, 0.007625871, -0.0908823, 0
263, 949623516, 0.014067996, -0.85250604, -0.5224623, -0.008291183, 0.0088495, -0.0043172645, -0.09306908, 0
264, 949640183, 0.014066655, -0.85251176, -0.5224531, -0.008285315, 0.0048752017, -0.0054195607, -0.078606606, 0
265, 949656850, 0.014061958, -0.8525127, -0.52245176, -0.008280492, 0.0019101836, 0.012622363, -0.0858078, 0
266, 949673517, 0.014060991, -0.85255915, -0.52237606, -0.008288091, -0.0136364, -0.016877199, -0.09120846, 0
267, 949690184, 0.014058144, -0.8524304, -0.522586, -0.008288522, -0.0030131014, -0.0037542284, -0.077732086, 0
268, 949706851, 0.01405587, -0.85240585, -0.5226261, -0.008287795, -0.0070543694, 0.009574778, -0.08289337, 0
269, 949723518, 0.014040159, -0.8523655, -0.5226925, -0.008288878, 0.0057608997, -0.006859012, -0.086232185, 0
270, 949740185, 0.014037674, -0.8523238, -0.52276057, -0.008289289, 0.0055324626, 0.006609467, -0.086294174, 0
271, 949756852, 0.014047896, -0.85233325, -0.5227448, -0.0082893325, -0.012192122, 2.4177117E-4, -0.09475231, 0
272, 949773519, 0.014050898, -0.85239357, -0.5226465, -0.008286021, -0.0033562146, 0.010715651, -0.0940218, 0
273, 949790186, 0.014046721, -0.85237217, -0.52268136, -0.008284358, -6.5484404E-4, 0.0055546043, -0.08230686, 0
274, 949806853, 0.014028623, -0.85239947, -0.5226373, -0.008287059, 0.0036651934, -0.00484757, -0.08913422, 0
275, 949823520, 0.014022576, -0.85241836, -0.52260655, -0.008294084, 0.0015147263, -0.021171454, -0.087451935, 0
276, 949840187, 0.0140281785, -0.85233897, -0.5227359, -0.00830004, 0.006531845, -0.010127169, -0.08374596, 0
277, 949856854, 0.014016882, -0.8523251, -0.5227586, -0.008311239, -0.010549756, 0.00370808, -0.07704449, 0
278, 949873521, 0.014014384, -0.8523951, -0.5226445, -0.0083166165, 1.51010945E-5, 0.019057203, -0.08413696, 0
279, 949890188, 0.014011863, -0.8523811, -0.5226673, -0.008306509, -0.028149871, 0.0037921907, -0.09401798, 0
280, 949906855, 0.0140132895, -0.8524055, -0.5226276, -0.008298945, -0.010437615, 0.01385385, -0.088666916, 0
281, 949923522, 0.014017133, -0.8524282, -0.5225906, -0.008289959, 0.0062093227, 0.0016432113, -0.09466457, 0
282, 949940189, 0.01401716, -0.8524161, -0.52261055, -0.008292765, 0.0022756134, 9.6930587E-4, -0.08070278, 0
283, 949956856, 0.014008411, -0.85244346, -0.522566, -0.008301185, -0.0048836255, -0.0018977019, -0.07570648, 0
284, 949973523, 0.014000764, -0.852459, -0.5225406, -0.008301263, 5.582027E-4, -0.0076012565, -0.09035301, 0
285, 949990190, 0.014001338, -0.8524429, -0.5225669, -0.008302725, 0.0049497364, -0.010970553, -0.09511471, 0
286, 950006857, 0.014003797, -0.85241085, -0.522619, -0.008308712, 0.005176546, -0.0046501104, -0.07490349, 0
287, 950023524, 0.014015772, -0.85238206, -0.5226658, -0.008301375, 3.639559E-4, 0.0017851281, -0.09102535, 0
288, 950040191, 0.014023053, -0.8523605, -0.5227006, -0.008305641, 0.0052867727, 0.0017583694, -0.094480515, 0
289, 950056858, 0.014023712, -0.85233337, -0.522745, -0.00829255, -0.009888877, 0.011699031, -0.08462715, 0
290, 950073525, 0.014012142, -0.8523352, -0.5227423, -0.008295811, -0.019933242, 0.0015237437, -0.06926727, 0
291, 950090192, 0.014001127, -0.8523667, -0.52269137, -0.008294392, -0.0062222513, 1.0350047E-4, -0.09300518, 0
292, 950106859, 0.013986731, -0.8523768, -0.5226754, -0.008289121, 2.3412284E-4, 0.008330258, -0.08623123, 0
293, 950123526, 0.013993226, -0.8523753, -0.52267766, -0.008286933, -0.007368908, -0.0028752147, -0.0955143, 0
294, 950140193, 0.013991017, -0.85236377, -0.52269655, -0.008286885, -9.915314E-4, -0.0032068382, -0.084877014, 0
295, 950156860, 0.014004447, -0.85234106, -0.5227332, -0.008285876, -0.008048003, 0.005390979, -0.08918476, 0
296, 950173527, 0.01400491, -0.85236216, -0.5226989, -0.008285601, 0.0014517376, 0.002775528, -0.0903101, 0
297, 950190194, 0.014003407, -0.8523494, -0.5227198, -0.008276503, -0.0045934706, 0.0023631884, -0.08312702, 0
298, 950206861, 0.0140096545, -0.8523385, -0.5227375, -0.008270257, 0.0037165035, 0.013371425, -0.07620525, 0
299, 950223528, 0.014019148, -0.8523153, -0.52277505, -0.00826856, 0.0066149915, -0.005319769, -0.094213486, 0
300, 950240195, 0.014017279, -0.85231596, -0.522774, -0.0082668075, -0.00635059, 0.0081787165, -0.08293247, 0
301, 950256862, 0.014023818, -0.85230726, -0.5227882, -0.008262837, -0.014676287, -0.007025152, -0.08452988, 0
302, 950273529, 0.014021481, -0.8523267, -0.5227565, -0.008262494, -0.019037772, -0.009178056, -0.09279251, 0
303, 950290196, 0.0140228085, -0.85231227, -0.52278, -0.008263594, -0.017251939, 0.007472164, -0.093364716, 0
304, 950306863, 0.014020932, -0.8523293, -0.522752, -0.008279138, -0.0091803195, 2.0322915E-4, -0.09785843, 0
305, 950323530, 0.014030061, -0.8523425, -0.5227301, -0.008288069, 0.0018854296, -0.008268086, -0.08364582, 0
306, 950340197, 0.014029842, -0.8523599, -0.52270186, -0.008290227, -0.006827322, 0.005452305, -0.08359432, 0
307, 950356864, 0.014035413, -0.852371, -0.5226835, -0.008292006, -0.0026331502, -0.006516136, -0.09121323, 0
308, 950373531, 0.014033566, -0.85239595, -0.52264273, -0.008298261, 0.0068012686, -0.0015730562, -0.06674862, 0
309, 950390198, 0.014033172, -0.8524135, -0.52261424, -0.008294928, -0.009109452, -0.012221989, -0.07177353, 0
310, 950406865, 0.01402517, -0.8524249, -0.5225959, -0.008289274, 0.0025426066, -0.0036600735, -0.09591484, 0
311, 950423532, 0.014028884, -0.8524105, -0.52261937, -0.008290623, 3.5159985E-4, 0.0033667895, -0.08007145, 0
312, 950440199, 0.014031204, -0.8523783, -0.52267146, -0.008303405, -0.009167914, -0.0017982037, -0.0772562, 0
313, 950456866, 0.0140468925, -0.85236096, -0.52269924, -0.008299093, 0.0043088757, 2.5264648E-4, -0.072068214, 0
314, 950473533, 0.014045686, -0.8523907, -0.5226512, -0.008294892, 0.0020549502, 0.00844221, -0.0934248, 0
315, 950490200, 0.014045002, -0.8524457, -0.5225612, -0.008302607, -0.0018741282, 0.008112452, -0.08722687, 0
316, 950506867, 0.014031025, -0.85240865, -0.5226219, -0.008308701, -0.0010785967, 0.01918879, -0.09161949, 0
317, 950523534, 0.014041628, -0.8524498, -0.52255476, -0.008292872, 0.0098709185, 0.006503752, -0.07897854, 0
318, 950540201, 0.014037951, -0.8525302, -0.5224239, -0.008281699, 0.0032240557, -0.00534636, -0.09155655, 0
319, 950556868, 0.014035893, -0.8525348, -0.5224165, -0.0082824975, 0.014764728, -1.559841E-4, -0.08969307, 0
320, 950573535, 0.014034284, -0.85263264, -0.5222568, -0.008278348, -0.0061878725, 0.0035228436, -0.07772732, 0
321, 950590202, 0.01402872, -0.85260606, -0.5223004, -0.008268968, 0.0025117618, -0.0023525367, -0.08939743, 0
322, 950606869, 0.014029951, -0.8526863, -0.52216923, -0.008277103, 0.009458321, 1.7394895E-4, -0.06687546, 0
323, 950623536, 0.014035918, -0.85269046, -0.5221623, -0.008269186, -0.005093686, -0.008834943, -0.09108925, 0
324, 950640203, 0.01404113, -0.8526847, -0.52217144, -0.00827925, -0.012456691, -0.0018572948, -0.08501053, 0
325, 950656870, 0.014027473, -0.85266674, -0.52220124, -0.008286628, 4.508885E-4, -4.813561E-4, -0.092443466, 0
326, 950673537, 0.014017855, -0.8526788, -0.5221818, -0.008282614, -0.012893659, 0.012454882, -0.09708786, 0
327, 950690204, 0.014021548, -0.85270226, -0.52214336, -0.008280233, -6.583574E-4, 0.008683199, -0.08851528, 0
328, 950706871, 0.014020782, -0.8526832, -0.5221746, -0.00828129, -4.0175754E-4, 0.014127835, -0.072818756, 0
329, 950723538, 0.01400906, -0.8526871, -0.5221684, -0.008289693, -0.0038563318, 0.018999083, -0.074417114, 0
330, 950740205, 0.014013974, -0.8526467, -0.5222343, -0.008287728, -4.3098885E-4, -0.012213879, -0.084420204, 0
331, 950756872, 0.014026629, -0.8526599, -0.5222125, -0.008291959, -0.0045569753, -0.0110029215, -0.09065819, 0
332, 950773539, 0.014030691, -0.85273343, -0.5220921, -0.008287801, -3.3371183E-4, 0.0034458295, -0.088544846, 0
333, 950790206, 0.014035886, -0.8527138, -0.5221241, -0.008281041, -0.0014498307, 0.0030409705, -0.08716869, 0
334, 950806873, 0.014033928, -0.8526784, -0.5221823, -0.008268964, -0.005171971, -2.9301152E-4, -0.08877373, 0
335, 950823540, 0.014027271, -0.85269916, -0.5221486, -0.008268919, 5.7884963E-4, 0.007810828, -0.0806303, 0
336, 950840207, 0.014014853, -0.8527257, -0.5221056, -0.008273116, -0.0016547991, 0.008586257, -0.07604885, 0
337, 950856874, 0.014007127, -0.8527185, -0.5221176, -0.008270188, 0.0041864887, 0.001131674, -0.08503151, 0
338, 950873541, 0.014006367, -0.8527311, -0.52209675, -0.008269118, -0.0047169477, -0.002330367, -0.08333111, 0
339, 950890208, 0.014013762, -0.8527354, -0.5220896, -0.008266745, 0.0029922517, 0.0044356775, -0.07614422, 0
340, 950906875, 0.0140235415, -0.8527467, -0.5220709, -0.008263419, 0.008874778, 0.011942507, -0.088246346, 0
341, 950923542, 0.014028343, -0.85275394, -0.522059, -0.008258384, 0.0024546473, -0.0015108428, -0.09825039, 0
342, 950940209, 0.014028786, -0.8527563, -0.52205515, -0.0082571395, 0.0025060412, 0.0044422224, -0.07821655, 0
343, 950956876, 0.014024271, -0.85275924, -0.52205056, -0.0082613155, -0.011605415, -0.0070432355, -0.09750271, 0
344, 950973543, 0.014025261, -0.8527002, -0.5221468, -0.008272603, 9.782254E-4, 0.0036270565, -0.088602066, 0
345, 950990210, 0.014022417, -0.8527336, -0.52209216, -0.008277702, 0.012998717, -0.0070588603, -0.08204937, 0
346, 951006877, 0.014017329, -0.85270846, -0.52213323, -0.0082838815, 0.008278669, -0.00409313, -0.07380676, 0
347, 951023544, 0.014009226, -0.8526909, -0.52216196, -0.008294857, 0.0054726517, -0.0043917294, -0.08786678, 0
348, 951040211, 0.013990148, -0.8527164, -0.5221209, -0.008292235, 0.0063189766, 1.8607454E-4, -0.07600498, 0
349, 951056878, 0.013999389, -0.85271573, -0.5221216, -0.008292785, 0.0018685963, -0.0022663656, -0.06809616, 0
350, 951073545, 0.014018096, -0.8527096, -0.5221316, -0.008278042, -0.0072473865, 0.003615783, -0.09796047, 0
351, 951090212, 0.014022103, -0.85274893, -0.52206737, -0.008277469, -0.014909914, 9.729938E-4, -0.07194233, 0
352, 951106879, 0.01402824, -0.85280436, -0.52197653, -0.0082733985, -0.0095216585, 8.723711E-4, -0.088871, 0
353, 951123546, 0.014036975, -0.8527958, -0.5219904, -0.008270105, -0.0032345958, 0.008079225, -0.089829445, 0
354, 951140213, 0.014040767, -0.8528536, -0.52189606, -0.00826315, -4.8683914E-6, 0.0011846187, -0.08633232, 0
355, 951156880, 0.014044795, -0.8528549, -0.5218936, -0.008259255, 0.010292506, -0.013528924, -0.078969955, 0
356, 951173547, 0.014055101, -0.8528483, -0.52190465, -0.008248287, 0.010217706, 0.01133027, -0.07973099, 0
357, 951190214, 0.014061838, -0.8528384, -0.5219205, -0.008240252, 0.009365751, -0.002882437, -0.078909874, 0
358, 951206881, 0.014064961, -0.8528469, -0.52190673, -0.008238336, 7.435857E-4, -0.0013276949, -0.07523632, 0
359, 951223548, 0.014097164, -0.8528251, -0.5219415, -0.008235487, -0.0056642722, -0.011983465, -0.08673, 0
360, 951240215, 0.014083339, -0.8527302, -0.522097, -0.008236082, -0.0069365012, -0.0036814818, -0.08711529, 0
361, 951256882, 0.014080463, -0.8525992, -0.52231073, -0.008236533, 0.0065479027, 0.008256624, -0.092214584, 0
362, 951273549, 0.014077515, -0.852622, -0.5222734, -0.008247272, -5.6769495E-4, 0.012034189, -0.10390854, 0
363, 951290216, 0.014073631, -0.85262537, -0.5222678, -0.008250363, 0.0038725575, 0.0068246815, -0.0827322, 0
364, 951306883, 0.014074175, -0.85261464, -0.5222856, -0.008253636, 1.9324092E-4, 0.0072787832, -0.08642101, 0
365, 951323550, 0.014073129, -0.8525401, -0.5224071, -0.008251282, 0.007706783, 0.0023121648, -0.08431625, 0
366, 951340217, 0.014079661, -0.85251534, -0.52244765, -0.00824837, -0.015483399, -0.0019288609, -0.085570335, 0
367, 951356884, 0.014074342, -0.85251755, -0.5224443, -0.008243094, -0.0014151653, 0.009608187, -0.09002304, 0
368, 951373551, 0.014074668, -0.85256255, -0.5223708, -0.008233247, -3.7553668E-4, -0.004817067, -0.0915308, 0
369, 951390218, 0.014073585, -0.8525368, -0.52241284, -0.00823461, 0.0011050969, -9.7241404E-4, -0.08766937, 0
370, 951406885, 0.014073042, -0.8525018, -0.52246976, -0.00824749, -0.0047064074, 0.01376742, -0.09255886, 0
371, 951423552, 0.014074817, -0.8524824, -0.52250135, -0.008255175, -0.0032309985, -0.00386595, -0.09305668, 0
372, 951440219, 0.014072748, -0.85250884, -0.5224583, -0.008258861, 0.002856747, 0.00200591, -0.1020174, 0
373, 951456886, 0.0140591385, -0.8525063, -0.5224625, -0.0082658045, -0.010256339, 0.009968719, -0.094641685, 0
374, 951473553, 0.014055468, -0.85260946, -0.5222941, -0.008273257, 0.011748547, 6.125163E-4, -0.08481789, 0
375, 951490220, 0.014062346, -0.8526672, -0.5221997, -0.008272923, 0.0013432291, -0.009395284, -0.08393288, 0
376, 951506887, 0.01406807, -0.8526854, -0.5221698, -0.008279625, 0.003579581, 0.005244941, -0.08582306, 0
377, 951523554, 0.01406509, -0.8526731, -0.5221898, -0.008287383, -0.0016906101, 0.0013263818, -0.07049179, 0
378, 951540221, 0.014063245, -0.8527751, -0.52202326, -0.008288459, -6.3778023E-4, -0.008792671, -0.085206985, 0
379, 951556888, 0.0140578495, -0.8528027, -0.5219782, -0.008297465, -9.621325E-4, -0.0045981226, -0.08266544, 0
380, 951573555, 0.014061624, -0.85273635, -0.52208656, -0.0082962, 0.0016878092, 5.8541534E-4, -0.09287357, 0
381, 951590222, 0.014055795, -0.8527603, -0.5220476, -0.008292486, -0.0035746286, -0.01260567, -0.08775139, 0
382, 951606889, 0.014062286, -0.8527654, -0.52203906, -0.008294371, 0.0059984312, -2.156411E-4, -0.095645905, 0
383, 951623556, 0.014070269, -0.8527843, -0.522008, -0.00829204, -0.0025352726, 0.019480774, -0.094371796, 0
384, 951640223, 0.014053755, -0.8527843, -0.52200854, -0.008285938, -0.014903306, 0.013770172, -0.0947237, 0
385, 951656890, 0.014051157, -0.852728, -0.52210057, -0.008281882, -0.014207, 0.014797955, -0.07826996, 0
386, 951673557, 0.014049621, -0.85277545, -0.5220233, -0.00827567, -0.006687661, -0.0014421615, -0.08988476, 0
387, 951690224, 0.014045256, -0.8527345, -0.5220904, -0.008279529, -0.0072754864, -0.0021418128, -0.069815636, 0
388, 951706891, 0.014040816, -0.85270387, -0.52214044, -0.008276472, -0.0017521181, 0.0045003076, -0.09248924, 0
389, 951723558, 0.014044379, -0.85260487, -0.52230215, -0.00826273, 0.010552947, -0.005000914, -0.08309841, 0
390, 951740225, 0.014037963, -0.8527001, -0.52214676, -0.008270867, 0.0087585645, -0.00382511, -0.08237171, 0
391, 951756892, 0.014046973, -0.8526503, -0.5222277, -0.008274156, 0.008100103, -0.010432481, -0.07076168, 0
392, 951773559, 0.014051031, -0.8526793, -0.5221803, -0.008273585, -0.0023782547, 0.0048855743, -0.085803986, 0
393, 951790226, 0.014058978, -0.8526964, -0.52215207, -0.008279795, 0.006150804, 0.0064004334, -0.09022522, 0
394, 951806893, 0.014056155, -0.8526932, -0.5221574, -0.008283719, -0.0028088524, 0.0062501067, -0.09962654, 0
395, 951823560, 0.014063552, -0.85268337, -0.52217317, -0.00827307, -0.015549663, 0.006398687, -0.074064255, 0
396, 951840227, 0.014056331, -0.8526792, -0.52218056, -0.008264431, 0.0061157546, -9.126453E-4, -0.08833885, 0
397, 951856894, 0.0140574835, -0.85267895, -0.5221806, -0.008260024, -0.0031864357, -0.0029552674, -0.095555305, 0
398, 951873561, 0.014047557, -0.85265595, -0.52221876, -0.008257432, -0.0021118482, -0.008958623, -0.088954926, 0
399, 951890228, 0.014040998, -0.8526485, -0.5222311, -0.008255101, -3.8261927E-4, -0.013729912, -0.08926487, 0
400, 951906895, 0.014050914, -0.8526589, -0.5222139, -0.008250588, -0.0039822464, -0.0016353047, -0.09732914, 0
401, 951923562, 0.014056665, -0.85265094, -0.52222687, -0.008244307, 0.0025943778, 0.011094079, -0.089624405, 0
402, 951940229, 0.014057618, -0.85265017, -0.52222806, -0.008253028, -0.0023279013, 0.0016032025, -0.08982277, 0
403, 951956896, 0.014057953, -0.8526415, -0.52224207, -0.008255517, -0.0067272163, 0.0065067834, -0.09244728, 0
404, 951973563, 0.014053431, -0.852613, -0.5222888, -0.008250419, 0.007929074, -0.005670321, -0.085035324, 0
405, 951990230, 0.014068656, -0.8525885, -0.5223283, -0.008254965, 0.0019585113, 0.0016366806, -0.0913353, 0
406, 952006897, 0.014065921, -0.8525786, -0.5223446, -0.008255444, -0.0030530333, -0.008480584, -0.08743572, 0
407, 952023564, 0.01406042, -0.8526156, -0.5222845, -0.008252529, 5.21791E-4, 0.004942598, -0.082024574, 0
408, 952040231, 0.014063094, -0.85260546, -0.5223007, -0.008250764, -0.0058601815, 0.005429451, -0.08991337, 0
409, 952056898, 0.014075482, -0.8526132, -0.522288, -0.008248024, 0.0074317777, -0.0032713914, -0.08672428, 0
410, 952073565, 0.01407594, -0.8526178, -0.52228034, -0.00825358, 0.0037839068, -2.862712E-4, -0.081213, 0
411, 952090232, 0.014072793, -0.8526125, -0.52228904, -0.00825726, 0.0071103172, -0.006095031, -0.06953144, 0
412, 952106899, 0.014078542, -0.8526182, -0.5222793, -0.008261296, -0.0024367592, -0.008499813, -0.08208561, 0
413, 952123566, 0.014077497, -0.8525975, -0.5223136, -0.008256531, -0.0065264455, -0.0013025497, -0.09665203, 0
414, 952140233, 0.014076237, -0.8525983, -0.5223118, -0.008271527, -7.944978E-4, 0.003935518, -0.093764305, 0
415, 952156900, 0.0140893385, -0.85257894, -0.5223433, -0.008265652, -0.013744398, 0.0028807048, -0.094444275, 0
416, 952173567, 0.014082815, -0.85257536, -0.5223491, -0.008273699, -0.0067271185, 0.013531391, -0.09565163, 0
417, 952190234, 0.01407142, -0.8525874, -0.5223298, -0.008270379, -0.006947488, -0.0023496102, -0.09439087, 0
418, 952206901, 0.01406991, -0.8526165, -0.5222822, -0.008270249, 0.0051809046, -0.01037397, -0.088181496, 0
419, 952223568, 0.014062484, -0.85259086, -0.52232426, -0.008275038, -0.005470193, -0.001792099, -0.079919815, 0
420, 952240235, 0.014069979, -0.85258156, -0.52233934, -0.008267697, -0.001912775, 9.6315925E-4, -0.08327675, 0
421, 952256902, 0.014075944, -0.8525305, -0.52242243, -0.00826744, 0.012619611, -0.0013856965, -0.08317852, 0
422, 952273569, 0.014065008, -0.8525223, -0.52243626, -0.008278192, 0.007192717, 0.0019550119, -0.09058857, 0
423, 952290236, 0.014076415, -0.85252, -0.52243954, -0.008277776, -8.555727E-4, 0.0010485551, -0.08400154, 0
424, 952306903, 0.014078273, -0.8524976, -0.522476, -0.008284197, 0.0019987926, 0.005330225, -0.10625553, 0
425, 952323570, 0.014078959, -0.8526062, -0.52229863, -0.008290364, -0.005667548, -0.017958533, -0.0827446, 0
426, 952340237, 0.014090261, -0.8525714, -0.52235496, -0.008287374, 0.010407518, 0.0060497345, -0.093421936, 0
427, 952356904, 0.014080604, -0.8525623, -0.52237016, -0.008288161, 0.006189067, 0.01573351, -0.07328987, 0
428, 952373571, 0.014077717, -0.8525317, -0.5224201, -0.008295562, -5.124104E-4, 0.0028184354, -0.09029484, 0
429, 952390238, 0.014085241, -0.8525528, -0.5223854, -0.008296737, 4.4002716E-4, 3.2037788E-4, -0.084153175, 0
430, 952406905, 0.014089343, -0.8525117, -0.5224525, -0.008293332, -0.011261645, -0.010320117, -0.077960014, 0
431, 952423572, 0.014086958, -0.8525322, -0.5224192, -0.008288495, 0.004665351, -0.0019470633, -0.07782936, 0
432, 952440239, 0.014092995, -0.85255784, -0.5223771, -0.008295513, 0.005958234, 0.009842505, -0.09927368, 0
433, 952456906, 0.014098092, -0.8525583, -0.5223763, -0.0082860375, -0.01154633, -0.011018379, -0.08868694, 0
434, 952473573, 0.014092981, -0.8525451, -0.52239805, -0.008292665, 0.0020102966, -0.01210609, -0.08570957, 0
435, 952490240, 0.014089926, -0.8525597, -0.52237415, -0.008288046, -0.014911108, 0.0021783991, -0.08789158, 0
436, 952506907, 0.014082078, -0.8525836, -0.5223353, -0.008293354, -0.012119383, 0.0044733463, -0.08793545, 0
437, 952523574, 0.014102559, -0.8525804, -0.5223399, -0.008297955, 0.0060601206, 0.0060754875, -0.09253597, 0
438, 952540241, 0.014101172, -0.8525254, -0.52242965, -0.008295758, -5.209598E-4, 0.0010161458, -0.0821743, 0
439, 952556908, 0.014108265, -0.85254914, -0.52239066, -0.008303758, 0.0010209164, -0.009855168, -0.0805521, 0
440, 952573575, 0.014116809, -0.85254097, -0.52240366, -0.008302871, 2.2223474E-4, 7.034372E-5, -0.09806061, 0
441, 952590242, 0.014117359, -0.8525568, -0.52237815, -0.008290259, 0.00672144, -2.1297293E-4, -0.0940361, 0
442, 952606909, 0.01411785, -0.8525305, -0.5224211, -0.008294745, -0.0017307935, -0.012977875, -0.09328842, 0
443, 952623576, 0.01411727, -0.8525266, -0.5224274, -0.008293061, -0.003331244, -0.00695346, -0.08626938, 0
444, 952640243, 0.014116049, -0.85251063, -0.5224533, -0.008298632, 0.008403612, -0.0055302065, -0.08154869, 0
445, 952656910, 0.014132121, -0.85251015, -0.5224539, -0.008289671, 8.431747E-4, -0.0043603117, -0.0789938, 0
446, 952673577, 0.014149635, -0.8525791, -0.522341, -0.008283517, 1.2066207E-4, -0.0077510104, -0.0864563, 0
447, 952690244, 0.014152537, -0.8525545, -0.5223811, -0.008279753, -0.015095597, -0.006809797, -0.08852005, 0
448, 952706911, 0.014157692, -0.8525695, -0.5223564, -0.008289392, -0.01229894, -0.001089933, -0.10545826, 0
449, 952723578, 0.014161188, -0.85258096, -0.5223377, -0.0082883835, 4.2328465E-4, 1.20466495E-4, -0.09667492, 0
450, 952740245, 0.014165757, -0.85254294, -0.5223995, -0.008282896, 0.013371956, 1.0005697E-4, -0.09117603, 0
451, 952756912, 0.014164413, -0.8525362, -0.5224105, -0.008281223, -0.007836141, -0.0064687026, -0.08428764, 0
452, 952773579, 0.014167384, -0.8524485, -0.5225535, -0.008285571, -0.0017484999, -0.008376909, -0.08260536, 0
453, 952790246, 0.01416234, -0.8524552, -0.5225427, -0.008289459, -0.0069248504, -0.0037362846, -0.081318855, 0
454, 952806913, 0.014155901, -0.8524753, -0.52251023, -0.008284704, -0.004185979, -0.0050864005, -0.08198547, 0
455, 952823580, 0.014165656, -0.8524775, -0.5225065, -0.008281591, 0.0054224106, -7.8596233E-4, -0.08029556, 0
456, 952840247, 0.014160969, -0.85247475, -0.522511, -0.008282801, -0.00493694, -0.009006014, -0.0939455, 0
457, 952856914, 0.014150075, -0.8525521, -0.5223851, -0.008283497, -0.0013314947, -0.0011767119, -0.07067585, 0
458, 952873581, 0.014152898, -0.8525585, -0.52237433, -0.008303173, -0.008346672, -0.0036636987, -0.077596664, 0
459, 952890248, 0.0141520975, -0.85257316, -0.5223505, -0.008305236, -0.007938335, 0.005331594, -0.08132458, 0
460, 952906915, 0.01414698, -0.8525871, -0.5223278, -0.008303474, -0.019205846, 3.955481E-4, -0.08616257, 0
461, 952923582, 0.014151036, -0.8526276, -0.52226174, -0.008301555, -0.012166341, -0.002569491, -0.0889349, 0
462, 952940249, 0.014155095, -0.85264, -0.52224123, -0.00829257, 0.013961583, -0.006060791, -0.091628075, 0
463, 952956916, 0.014156271, -0.8526406, -0.5222403, -0.008286979, 0.0028794545, -0.0039011114, -0.077967644, 0
464, 952973583, 0.014155927, -0.8527034, -0.5221379, -0.008285599, 0.005561652, 0.0023635307, -0.0710516, 0
465, 952990250, 0.014159172, -0.85270137, -0.522141, -0.008294094, 0.006093927, 0.005566569, -0.08656597, 0
466, 953006917, 0.014161214, -0.85270226, -0.52213943, -0.008298032, -0.0027373491, -0.00888251, -0.095513344, 0
467, 953023584, 0.014158276, -0.852709, -0.52212846, -0.008300975, 0.006035716, -0.017085478, -0.08393669, 0
468, 953040251, 0.014165926, -0.8526987, -0.5221451, -0.008299207, 0.006805201, 5.5949483E-4, -0.087002754, 0
469, 953056918, 0.014160891, -0.85269165, -0.52215654, -0.008307808, -0.009142414, -0.0067205806, -0.08378792, 0
470, 953073585, 0.014164011, -0.8526062, -0.52229595, -0.00831431, -0.008897276, 0.0096864505, -0.09684944, 0
471, 953090252, 0.0141654145, -0.8526007, -0.52230483, -0.008311638, -0.008277062, 0.0015168427, -0.074207306, 0
472, 953106919, 0.014165924, -0.8525128, -0.5224483, -0.008311622, -0.0035431273, 0.01332316, -0.08664322, 0
473, 953123586, 0.014163287, -0.8525063, -0.522459, -0.008312011, -0.0084665315, 0.006938499, -0.090545654, 0
474, 953140253, 0.014171861, -0.8525148, -0.5224449, -0.008309369, -8.238548E-5, 0.011903392, -0.09529114, 0
475, 953156920, 0.014166081, -0.8525335, -0.5224143, -0.008323394, -0.008811112, 0.0012895999, -0.07975006, 0
476, 953173587, 0.014162034, -0.8524897, -0.52248603, -0.008320315, -0.0063034776, -0.013236207, -0.08832264, 0
477, 953190254, 0.0141598545, -0.8524716, -0.5225156, -0.008324138, -3.5302475E-4, -0.004192614, -0.08043766, 0
478, 953206921, 0.014160378, -0.85245574, -0.5225414, -0.008326747, 0.0017560365, -0.017977253, -0.088879585, 0
479, 953223588, 0.014129278, -0.8524176, -0.5226056, -0.0082542645, 0.011806925, -0.009405251, -0.090821266, 0
480, 953240255, 0.014128405, -0.85242075, -0.5226004, -0.00825584, 0.00568742, -0.017297884, -0.09229946, 0
481, 953256922, 0.014133064, -0.852431, -0.5225835, -0.008263059, 0.0030718923, -0.0047013015, -0.0822773, 0
482, 953273589, 0.014128864, -0.85247135, -0.52251786, -0.00826378, 3.1786336E-4, 0.0070385276, -0.08614349, 0
483, 953290256, 0.014130531, -0.8525157, -0.52244544, -0.008255202, 0.010134978, 0.013087166, -0.095645905, 0
484, 953306923, 0.014136026, -0.85249203, -0.52248394, -0.008252589, -0.014642711, 0.006133042, -0.0845747, 0
485, 953323590, 0.0141420495, -0.8525212, -0.52243626, -0.008246562, -0.013148638, -0.0023349002, -0.08953667, 0
486, 953340257, 0.014130291, -0.85251486, -0.5224471, -0.008239564, 0.0061247507, -0.002326316, -0.08426094, 0
487, 953356924, 0.0141329225, -0.85251796, -0.52244186, -0.00824721, -0.0034667768, -8.587088E-4, -0.08148289, 0
488, 953373591, 0.014138201, -0.8525623, -0.5223694, -0.008239153, 0.010113067, -0.0075002355, -0.07817078, 0
489, 953390258, 0.014147748, -0.8524892, -0.5224885, -0.008240952, 0.011269726, 0.0056871334, -0.09405327, 0
490, 953406925, 0.014145315, -0.8525239, -0.52243197, -0.008236785, -0.0057620103, -6.506602E-4, -0.08018398, 0
491, 953423592, 0.014135857, -0.8524784, -0.52250624, -0.008244704, -0.004160596, 0.0042278455, -0.093008995, 0
492, 953440259, 0.014132272, -0.8524703, -0.5225194, -0.008255211, 0.0062166355, -1.5279904E-4, -0.0908308, 0
493, 953456926, 0.014134531, -0.85246044, -0.52253556, -0.008246957, 0.009153512, 0.007309726, -0.08131504, 0
494, 953473593, 0.0141346585, -0.8524319, -0.52258223, -0.008245691, -0.022239504, 0.0036312614, -0.08591938, 0
495, 953490260, 0.014135501, -0.8523537, -0.52270967, -0.008254199, -0.018795945, -0.0046515423, -0.09263992, 0
496, 953506927, 0.0141379535, -0.8523229, -0.5227598, -0.008246473, 0.0037685263, 0.002238601, -0.097353935, 0
497, 953523594, 0.014137422, -0.85228544, -0.522821, -0.008243988, -0.006437243, 0.019108262, -0.08285904, 0
498, 953540261, 0.014134484, -0.8522551, -0.5228704, -0.008250709, -0.0049179415, 0.0017637128, -0.09247875, 0
499, 953556928, 0.014136763, -0.8522465, -0.52288425, -0.0082575865, 0.0066068266, -0.006205383, -0.0756979, 0
500, 953573595, 0.014136475, -0.85228986, -0.5228135, -0.008272407, 0.017357275, 0.006258712, -0.08511925, 0
501, 953590262, 0.014135693, -0.8522374, -0.5228989, -0.008272656, 0.0039910893, -0.0048233327, -0.09396267, 0
502, 953606929, 0.014139404, -0.85223854, -0.52289706, -0.008271705, 0.008663613, 0.0044217985, -0.0827713, 0
503, 953623596, 0.014145049, -0.8522809, -0.5228277, -0.008266617, 0.012000704, -0.006463981, -0.08673859, 0
504, 953640263, 0.01414459, -0.8522521, -0.52287465, -0.008267789, 0.0013773707, 9.377905E-4, -0.09489441, 0
505, 953656930, 0.014127095, -0.8522456, -0.5228857, -0.008268277, 0.0030379253, -0.0018795833, -0.09154129, 0
506, 953673597, 0.014133336, -0.8522744, -0.5228385, -0.008271763, 0.02493262, -0.009804689, -0.074193, 0
507, 953690264, 0.014135925, -0.85226476, -0.52285427, -0.008277049, -0.012120849, -0.008601721, -0.092077255, 0
508, 953706931, 0.014142035, -0.8522423, -0.5228909, -0.008267862, -0.0040027886, 0.003951304, -0.07620239, 0
509, 953723598, 0.014140438, -0.8522754, -0.52283704, -0.008270004, -0.0027152074, 0.0033480425, -0.10508156, 0
510, 953740265, 0.014147706, -0.8522172, -0.52293164, -0.008265294, -0.0059032077, 0.008468137, -0.09789848, 0
511, 953756932, 0.014149437, -0.85223496, -0.5229025, -0.0082624145, -0.007873754, 3.462495E-4, -0.0878849, 0
512, 953773599, 0.014150636, -0.85224444, -0.5228871, -0.008254272, -0.01647167, 0.006624002, -0.07588482, 0
513, 953790266, 0.014147902, -0.8522294, -0.52291185, -0.008258739, 0.0016112281, 0.0074738823, -0.092030525, 0
514, 953806933, 0.0141527625, -0.85225356, -0.5228723, -0.008259427, 0.0038054897, -0.001891695, -0.08084011, 0
515, 953823600, 0.01415232, -0.8522333, -0.52290535, -0.008259099, -0.00856392, 0.004861449, -0.07893276, 0
516, 953840267, 0.014148604, -0.85225475, -0.52287036, -0.008257961, -4.2965476E-4, -0.0070203184, -0.0792799, 0
517, 953856934, 0.014143663, -0.8522706, -0.5228449, -0.008257318, 0.0035585638, 0.007320692, -0.078412056, 0
518, 953873601, 0.0141300075, -0.85233265, -0.5227439, -0.008256041, 0.011698759, -0.009483913, -0.08674145, 0
519, 953890268, 0.014132138, -0.8523787, -0.5226687, -0.008258111, 0.008828888, -0.005021065, -0.09067249, 0
520, 953906935, 0.01413619, -0.85241956, -0.52260214, -0.008259909, -0.0037707824, -7.696529E-4, -0.08509731, 0
521, 953923602, 0.0141358385, -0.8524127, -0.5226136, -0.008247318, -1.511716E-4, 0.0075494223, -0.079613686, 0
522, 953940269, 0.014139832, -0.85235316, -0.5227107, -0.008235112, -0.0010544223, 0.009735072, -0.07518768, 0
523, 953956936, 0.014131093, -0.8523534, -0.5227105, -0.008237581, 2.4361516E-4, -0.0026158001, -0.09596634, 0
524, 953973603, 0.014143798, -0.8523579, -0.522703, -0.008224731, -0.012354225, 0.0066514383, -0.08190632, 0
525, 953990270, 0.014141782, -0.85235023, -0.5227156, -0.008214623, -0.0067159496, 0.017679581, -0.08480835, 0
526, 954006937, 0.014145295, -0.85236526, -0.5226912, -0.008212463, 0.0029453349, -0.024803778, -0.09219551, 0
527, 954023604, 0.014137282, -0.8523716, -0.522681, -0.008217323, -3.15733E-4, 0.011985337, -0.09346008, 0
528, 954040271, 0.014131588, -0.8523533, -0.5227111, -0.008213836, -0.0025454913, -0.0043359767, -0.090102196, 0
529, 954056938, 0.01413336, -0.8523475, -0.5227205, -0.008216871, -0.0048958836, 0.004126189, -0.08589363, 0
530, 954073605, 0.014118935, -0.8523867, -0.5226569, -0.008221694, 0.015771218, -0.02640288, -0.09371281, 0
531, 954090272, 0.014116851, -0.8524185, -0.52260494, -0.008227025, 0.013859885, -0.011986078, -0.07762051, 0
532, 954106939, 0.014118036, -0.8524006, -0.5226341, -0.008224946, 0.0054479465, -0.002019202, -0.07071781, 0
533, 954123606, 0.014118874, -0.85239583, -0.52264196, -0.008219837, -0.0048471577, 0.0034431333, -0.09258652, 0
534, 954140273, 0.014126544, -0.85241646, -0.5226082, -0.008215067, -0.008237919, 0.004934579, -0.09785366, 0
535, 954156940, 0.0141276745, -0.8524623, -0.52253336, -0.008211477, -0.0055784294, 0.010909731, -0.08357906, 0
536, 954173607, 0.014128194, -0.8524931, -0.52248305, -0.008213142, -1.0701381E-4, 0.0120522445, -0.08961868, 0
537, 954190274, 0.014123143, -0.85251355, -0.52244973, -0.00821947, -0.01738933, 0.009263941, -0.077103615, 0
538, 954206941, 0.014122077, -0.85254043, -0.52240586, -0.00821656, -0.008516451, 0.005540942, -0.09342861, 0
539, 954223608, 0.014123867, -0.8524983, -0.52247477, -0.008211792, 0.014335192, 0.0054999273, -0.09627342, 0
540, 954240275, 0.014139837, -0.852531, -0.52242094, -0.008208569, 0.009883485, 4.0420922E-4, -0.082551, 0
541, 954256942, 0.014126663, -0.85245925, -0.5225384, -0.008205771, -0.0054740976, 0.0030523906, -0.08379841, 0
542, 954273609, 0.014127813, -0.85250354, -0.52246636, -0.008199749, 0.01803554, -0.017936748, -0.08630943, 0
543, 954290276, 0.014123429, -0.8525251, -0.52243114, -0.008193964, 0.011855427, 0.006028061, -0.082891464, 0
544, 954306943, 0.014133381, -0.8524878, -0.5224918, -0.008189209, -0.0026470849, -0.008933792, -0.06945419, 0
545, 954323610, 0.014137414, -0.85261047, -0.5222914, -0.008199739, -0.0051988624, -0.008769622, -0.09051514, 0
546, 954340277, 0.014127585, -0.8528311, -0.52193123, -0.008212269, 0.0043236907, 9.2386286E-4, -0.08805752, 0
547, 954356944, 0.014125434, -0.8527971, -0.5219867, -0.008216484, -0.0060023568, 0.0026432641, -0.10641289, 0
548, 954373611, 0.014129092, -0.85274655, -0.52206916, -0.008217112, -0.0033448504, 3.777369E-5, -0.099066734, 0
549, 954390278, 0.014117884, -0.8527117, -0.52212644, -0.008225568, -0.016694777, 0.0057567577, -0.09196377, 0
550, 954406945, 0.014111312, -0.8526936, -0.52215594, -0.008225487, 0.0020138028, 0.001086287, -0.097929, 0
551, 954423612, 0.014117065, -0.85275114, -0.52206177, -0.008232167, -0.008376854, -0.0032878756, -0.09934616, 0
552, 954440279, 0.014121706, -0.8527364, -0.5220858, -0.008230532, 0.004287055, -0.007507891, -0.089221954, 0
553, 954456946, 0.014116824, -0.85265946, -0.52221173, -0.008224823, 0.0011865046, -5.925957E-4, -0.08571911, 0
554, 954473613, 0.014109704, -0.8527944, -0.5219914, -0.00822066, 5.573505E-4, -0.013421045, -0.08797073, 0
555, 954490280, 0.0141109405, -0.8527932, -0.52199316, -0.008224871, 5.0810084E-4, -0.003518464, -0.08548546, 0
556, 954506947, 0.014122909, -0.85281974, -0.5219499, -0.008219234, 0.015024527, -0.0048798257, -0.08104706, 0
557, 954523614, 0.0141343465, -0.85275465, -0.52205586, -0.008214457, -3.6971137E-4, -5.6498486E-4, -0.06573963, 0
558, 954540281, 0.01414438, -0.85276026, -0.52204645, -0.00821952, -0.0020610827, -0.008217279, -0.08610916, 0
559, 954556948, 0.014156655, -0.8527712, -0.5220282, -0.008220935, -0.0087059345, -0.0042085676, -0.08960152, 0
560, 954573615, 0.014159046, -0.85273516, -0.52208686, -0.008215919, 0.005025291, -0.0025268488, -0.08727932, 0
561, 954590282, 0.014155746, -0.8527163, -0.52211756, -0.008222838, -0.010242886, 0.005121841, -0.0818367, 0
562, 954606949, 0.014160371, -0.8527016, -0.52214164, -0.0082279565, -0.004184973, -0.009031607, -0.08100319, 0
563, 954623616, 0.0141661195, -0.8527106, -0.52212673, -0.008234981, 0.008673442, -2.9628738E-4, -0.06972408, 0
564, 954640283, 0.014164089, -0.852637, -0.5222471, -0.008229665, 0.006220456, -0.0023976164, -0.08421612, 0
565, 954656950, 0.014167933, -0.8526231, -0.52226967, -0.008225491, -7.1166526E-4, -0.009114418, -0.09147167, 0
566, 954673617, 0.014171277, -0.8525753, -0.5223473, -0.00823694, 0.0069620307, 0.0034338436, -0.057911873, 0
567, 954690284, 0.014170971, -0.85257, -0.5223559, -0.008238315, 0.0010048235, 0.0021533098, -0.076156616, 0
568, 954706951, 0.01416801, -0.8526023, -0.5223033, -0.008239444, 0.01611193, -0.0072918516, -0.07420635, 0
569, 954723618, 0.014171602, -0.85259837, -0.5223097, -0.0082368525, -0.0035498748, 0.0029416122, -0.080862045, 0
570, 954740285, 0.014179165, -0.8526134, -0.5222849, -0.008236207, -0.014746952, 0.010174505, -0.079481125, 0
571, 954756952, 0.014187176, -0.8526186, -0.5222762, -0.008241907, -0.009185454, -5.361936E-4, -0.08108711, 0
572, 954773619, 0.0141800875, -0.8526056, -0.5222976, -0.008250085, -0.0047170664, -4.6452976E-4, -0.08310509, 0
573, 954790286, 0.01417535, -0.8525864, -0.52232885, -0.008253544, -0.002460703, -5.2419375E-4, -0.08913803, 0
574, 954806953, 0.014176264, -0.8525941, -0.5223162, -0.0082559865, 0.005779626, -0.0018640631, -0.0874176, 0
575, 954823620, 0.014174765, -0.85252666, -0.5224263, -0.008254755, 0.013943751, -0.006029646, -0.08669186, 0
576, 954840287, 0.01418076, -0.85250306, -0.52246463, -0.008256786, 0.019069176, -5.573086E-4, -0.09094334, 0
577, 954856954, 0.01419196, -0.8525063, -0.5224592, -0.008248656, 0.005782427, -0.011240117, -0.08928585, 0
578, 954873621, 0.014184214, -0.8525104, -0.52245265, -0.008252304, 0.0025140946, -0.012018243, -0.09365368, 0
579, 954890288, 0.014191722, -0.8524876, -0.5224897, -0.0082443515, 0.005439635, 3.529479E-4, -0.07614231, 0
580, 954906955, 0.014195072, -0.85248417, -0.5224953, -0.008238541, 0.005726046, 0.0073723234, -0.08303356, 0
581, 954923622, 0.014191105, -0.8524924, -0.522482, -0.008239292, -1.3347914E-5, 0.0030361023, -0.09189987, 0
582, 954940289, 0.014175893, -0.85251164, -0.52245086, -0.008242444, 0.00871009, -0.006141333, -0.08502197, 0
583, 954956956, 0.014178716, -0.8524645, -0.52252764, -0.008255297, 0.005129839, -0.0047624675, -0.07453537, 0
584, 954973623, 0.014192706, -0.85245234, -0.52254707, -0.008253195, -0.010958987, -0.004491395, -0.08117294, 0
585, 954990290, 0.014187821, -0.8524719, -0.5225154, -0.008252193, 0.010521718, -0.0035692435, -0.07576656, 0
586, 955006957, 0.0141979465, -0.85244787, -0.52255434, -0.008249909, 0.023731796, -0.008679972, -0.089375496, 0
587, 955023624, 0.014191425, -0.85244834, -0.52255374, -0.008251428, 0.003182545, -0.008892763, -0.08465195, 0
588, 955040291, 0.014216027, -0.85241145, -0.52261335, -0.00824649, -2.9025952E-4, -0.0018441705, -0.087527275, 0
589, 955056958, 0.014210343, -0.8524269, -0.52258813, -0.008258722, -0.012148223, -0.0073933895, -0.06671238, 0
590, 955073625, 0.014209388, -0.8524301, -0.52258295, -0.008255784, -0.0013917243, -0.004483649, -0.08977604, 0
591, 955090292, 0.014205461, -0.85243976, -0.5225674, -0.008254234, 3.2990513E-4, 0.01303047, -0.09321308, 0
592, 955106959, 0.01420523, -0.85243756, -0.5225711, -0.008249373, -2.8275087E-4, -0.008804434, -0.10051727, 0
593, 955123626, 0.014212419, -0.8524286, -0.5225852, -0.008247249, 2.825553E-4, 0.0039317324, -0.090722084, 0
594, 955140293, 0.014215467, -0.8523953, -0.5226399, -0.008237152, 0.011337841, 0.0011269943, -0.08624458, 0
595, 955156960, 0.014211628, -0.85242623, -0.5225893, -0.008248268, 0.006702518, 0.012441507, -0.093663216, 0
596, 955173627, 0.014201072, -0.85241157, -0.5226136, -0.00824583, 0.004450925, -0.0055209934, -0.08705044, 0
597, 955190294, 0.014206798, -0.8523358, -0.52273726, -0.008236456, 0.0070543764, 0.0013350778, -0.08585262, 0
598, 955206961, 0.01419744, -0.85233825, -0.52273315, -0.008244742, 0.0075717038, -0.010909416, -0.096048355, 0
599, 955223628, 0.014144992, -0.85231566, -0.5227714, -0.008249817, -0.007661745, -0.014838655, -0.07910061, 0
600, 955240295, 0.014137612, -0.8523265, -0.52275383, -0.00825353, -0.019041201, -0.003760424, -0.07887554, 0
601, 955256962, 0.014138243, -0.85231364, -0.5227748, -0.008255443, -0.002520807, 0.003236328, -0.083642006, 0
602, 955273629, 0.014138035, -0.85227305, -0.52284104, -0.008259033, -0.0035351438, 0.0046080407, -0.074851036, 0
603, 955290296, 0.014149209, -0.85227627, -0.5228356, -0.008249705, -0.0027834277, -0.004262378, -0.079268456, 0
604, 955306963, 0.014153614, -0.8522946, -0.5228055, -0.008244408, -6.390445E-4, 0.002841534, -0.07973194, 0
605, 955323630, 0.01416782, -0.85229903, -0.522798, -0.008238744, -0.011041163, -0.0043338602, -0.07956219, 0
606, 955340297, 0.01416321, -0.8522945, -0.52280545, -0.008239845, 0.012701054, -0.0026430127, -0.08759594, 0
607, 955356964, 0.014161393, -0.8523429, -0.5227267, -0.008234737, -0.0072850278, 0.0047850213, -0.087922096, 0
608, 955373631, 0.0141685335, -0.8523578, -0.52270234, -0.008228517, -3.9505915E-4, -0.014763646, -0.08905983, 0
609, 955390298, 0.014160352, -0.8523559, -0.52270573, -0.008225365, -0.0014409252, -4.2211817E-4, -0.07989597, 0
610, 955406965, 0.014169473, -0.85232556, -0.5227551, -0.008222062, -0.0024977643, -0.005743899, -0.08034325, 0
611, 955423632, 0.014169172, -0.8523209, -0.5227628, -0.0082145715, 0.0054683704, -0.012934206, -0.06764507, 0
612, 955440299, 0.014166271, -0.8523285, -0.52275044, -0.008212984, 0.006953984, -0.006153612, -0.08071041, 0
613, 955456966, 0.014178894, -0.85233015, -0.52274746, -0.00820898, -0.0028670495, 0.018692892, -0.09055805, 0
614, 955473633, 0.014170661, -0.85230845, -0.522783, -0.008211657, 0.0076966616, -3.085736E-4, -0.0845623, 0
615, 955490300, 0.014170562, -0.85229856, -0.5227991, -0.008212022, -0.0022505869, -0.0023873767, -0.0889225, 0
616, 955506967, 0.014166911, -0.85226613, -0.5228522, -0.008202388, -0.010412777, 0.0023389512, -0.08714199, 0
617, 955523634, 0.014159043, -0.8522627, -0.522858, -0.008207129, 0.0025505202, 8.724968E-4, -0.0831337, 0
618, 955540301, 0.014161365, -0.85220647, -0.5229494, -0.008209389, -0.0054425756, -0.0058448217, -0.087444305, 0
619, 955556968, 0.014167585, -0.85218835, -0.52297866, -0.0082148835, 0.010474746, -0.005633036, -0.09216881, 0
620, 955573635, 0.014178835, -0.8521923, -0.5229722, -0.008204994, 0.01268121, 0.0037670105, -0.09517956, 0
621, 955590302, 0.014184144, -0.85218424, -0.52298516, -0.008200256, 0.017069928, -0.0066990326, -0.07638168, 0
622, 955606969, 0.0141873965, -0.8521816, -0.5229895, -0.008201202, 0.0021347094, -0.018499084, -0.087203026, 0
623, 955623636, 0.014185787, -0.8521992, -0.5229609, -0.008199356, -0.0050326944, -0.0013237695, -0.074671745, 0
624, 955640303, 0.014182494, -0.85220283, -0.5229549, -0.008207319, -0.008464017, 0.0028568448, -0.08269215, 0
625, 955656970, 0.014183923, -0.8521983, -0.5229622, -0.008207791, -0.0050513716, -0.005875597, -0.0897007, 0
626, 955673637, 0.014183859, -0.8521706, -0.52300733, -0.008209582, -0.011289625, -0.0035899114, -0.08131504, 0
627, 955690304, 0.014180219, -0.8521828, -0.52298766, -0.008213969, 0.0032171337, -0.0010599543, -0.078035355, 0
628, 955706971, 0.014179926, -0.8521553, -0.5230322, -0.008215638, -0.0024416696, -0.0010984684, -0.08733082, 0
629, 955723638, 0.014180767, -0.8521624, -0.5230207, -0.008215389, 4.7992423E-4, -0.002138125, -0.09004974, 0
630, 955740305, 0.0141797755, -0.85218734, -0.5229802, -0.008205771, 0.0045256554, -1.3177485E-4, -0.0881834, 0
631, 955756972, 0.014182686, -0.8521781, -0.5229952, -0.0082053775, 0.009347745, -0.0044797794, -0.08267975, 0
632, 955773639, 0.014179246, -0.85218835, -0.5229784, -0.0082147755, -0.00723216, 0.004265661, -0.07015705, 0
633, 955790306, 0.014179562, -0.8521739, -0.5230022, -0.008203245, 0.00911928, -0.010027057, -0.092098236, 0
634, 955806973, 0.014176373, -0.85217994, -0.5229924, -0.008210514, -0.0019674518, -0.0097835045, -0.09166527, 0
635, 955823640, 0.014175721, -0.8521643, -0.52301794, -0.00820569, 0.0042052427, -0.0072134687, -0.08956051, 0
636, 955840307, 0.014173399, -0.8521662, -0.52301484, -0.008211897, -0.0074196244, -7.069156E-4, -0.09112835, 0
637, 955856974, 0.014177544, -0.8521899, -0.5229761, -0.0082094325, -0.0096706515, -0.005351417, -0.095529556, 0
638, 955873641, 0.0141834635, -0.8522146, -0.52293575, -0.008210364, -0.0049192267, -0.0038660967, -0.08773613, 0
639, 955890308, 0.014188054, -0.8521978, -0.52296305, -0.008202185, 0.003954384, -0.005381242, -0.087654114, 0
640, 955906975, 0.01418828, -0.8522487, -0.52288014, -0.008200745, -0.003940275, -0.0025687786, -0.083740234, 0
641, 955923642, 0.014192924, -0.85222006, -0.52292687, -0.008191268, 0.004893446, -0.008402495, -0.07781315, 0
642, 955940309, 0.014199857, -0.8521352, -0.523065, -0.008192813, -0.0078519685, -0.010752203, -0.09692669, 0
643, 955956976, 0.01421465, -0.8520114, -0.5232663, -0.008191607, 0.0015613148, -0.014876694, -0.10143852, 0
644, 955973643, 0.014218486, -0.8519351, -0.52339035, -0.0081949, -0.0067673717, -2.5164764E-4, -0.08434391, 0
645, 955990310, 0.014227523, -0.8520531, -0.52319825, -0.008174004, 0.01210623, 0.007650101, -0.090740204, 0
646, 956006977, 0.014229798, -0.85218954, -0.52297604, -0.008177, -1.0485551E-4, 0.0015542951, -0.08653927, 0
647, 956023644, 0.014236018, -0.8521378, -0.52306014, -0.00816936, 0.0027992483, 0.0058771474, -0.08543873, 0
648, 956040311, 0.014235179, -0.8521293, -0.5230742, -0.008159808, 0.006948082, 0.010008498, -0.08360767, 0
649, 956056978, 0.014234611, -0.8521275, -0.523077, -0.0081646545, 0.0018904307, -0.011855301, -0.07345295, 0
650, 956073645, 0.014227926, -0.85212946, -0.52307403, -0.008163636, 0.0046619563, 0.0070721176, -0.095638275, 0
651, 956090312, 0.014226681, -0.85212505, -0.52308124, -0.008166692, -0.002005896, 1.5170942E-5, -0.08837414, 0
652, 956106979, 0.014230443, -0.8521256, -0.52308017, -0.00816699, -0.009393523, 3.7548778E-4, -0.09144497, 0
653, 956123646, 0.014237256, -0.85212725, -0.52307713, -0.008172125, -0.013502921, 0.0015045775, -0.09421253, 0
654, 956140313, 0.014284986, -0.8521299, -0.5230716, -0.00817191, 0.013915365, 8.968387E-4, -0.22435856, 0
655, 956156980, 0.014249295, -0.8521379, -0.52305937, -0.008177001, -0.016896147, 0.012940269, 0.06314182, 0
656, 956173647, 0.0142488815, -0.85213554, -0.52306336, -0.008168446, 0.023350678, -0.027520444, -0.06465244, 0
657, 956190314, 0.014270452, -0.85213673, -0.523061, -0.008158932, 0.02625205, -4.0437686E-4, -0.09850693, 0
658, 956206981, 0.014268808, -0.85214037, -0.52305514, -0.008161971, 0.0026126709, -0.016415818, -0.07056999, 0
659, 956223648, 0.014266245, -0.8521355, -0.52306306, -0.008161616, -0.00787133, -0.004439135, -0.08243084, 0
660, 956240315, 0.014266029, -0.85213065, -0.52307093, -0.008161274, -0.0033072513, -0.0029073588, -0.081804276, 0
661, 956256982, 0.014264704, -0.85212857, -0.52307445, -0.008163879, -0.015071982, 0.01085865, -0.07841396, 0
662, 956273649, 0.014269067, -0.852134, -0.52306545, -0.008167561, -0.0011641183, 0.008281979, -0.07850742, 0
663, 956290316, 0.014263241, -0.8521329, -0.5230673, -0.008170346, -0.012353289, -0.006389383, -0.09109402, 0
664, 956306983, 0.014272818, -0.8521369, -0.5230605, -0.008168984, -0.0032500948, 0.0012952995, -0.08957672, 0
665, 956323650, 0.014278151, -0.8521344, -0.5230644, -0.008176663, 0.001767764, -0.004618937, -0.08063984, 0
666, 956340317, 0.014279219, -0.85213584, -0.52306193, -0.008173803, 0.0055850022, -0.018135276, -0.088541985, 0
667, 956356984, 0.014289351, -0.85213274, -0.52306664, -0.008174398, 0.0066912514, -0.009146807, -0.103616714, 0
668, 956373651, 0.014294858, -0.8521323, -0.52306736, -0.008166396, -0.0045461277, -0.017020373, -0.08927536, 0
669, 956390318, 0.014290095, -0.8521355, -0.5230623, -0.0081676245, 0.003807718, 6.155477E-4, -0.092494965, 0
670, 956406985, 0.014282622, -0.85213685, -0.52306026, -0.008162465, -0.0038178668, -0.013723479, -0.07989788, 0
671, 956423652, 0.014286973, -0.8521351, -0.52306324, -0.008160828, -0.0018254722, 0.0010873487, -0.075161934, 0
672, 956440319, 0.014277848, -0.85213286, -0.52306724, -0.0081575075, 0.0069912197, -0.016710771, -0.064697266, 0
673, 956456986, 0.014269973, -0.85213447, -0.5230648, -0.008162629, 0.0019969416, -0.0058995266, -0.08476162, 0
674, 956473653, 0.014269754, -0.85213315, -0.523067, -0.00816683, 0.0021444182, 0.004444569, -0.07839775, 0
675, 956490320, 0.014266251, -0.8521315, -0.52306956, -0.008170569, -0.0038231052, 0.00452298, -0.079904556, 0
676, 956506987, 0.014261075, -0.85213035, -0.52307135, -0.008180626, -0.012668281, 0.012602918, -0.094968796, 0
677, 956523654, 0.014257145, -0.85212725, -0.52307653, -0.008179569, -0.008833484, -0.008211286, -0.08819294, 0
678, 956540321, 0.014259957, -0.8521272, -0.52307665, -0.00817191, -0.009765281, -0.006456493, -0.09470558, 0
679, 956556988, 0.014259643, -0.8521319, -0.5230687, -0.008189725, 0.006835068, 0.0031846894, -0.08817673, 0
680, 956573655, 0.0142682, -0.8521291, -0.52307284, -0.008199414, 0.006545528, 4.4210863E-4, -0.09723759, 0
681, 956590322, 0.0142719615, -0.8521315, -0.5230687, -0.008205222, 0.0089647, -0.008820967, -0.07263374, 0
682, 956606989, 0.014275515, -0.85213387, -0.52306485, -0.00819678, 0.0030679528, -0.010065445, -0.0883379, 0
683, 956623656, 0.014263112, -0.85213566, -0.5230623, -0.008199288, 0.008225026, 0.00885434, -0.08047962, 0
684, 956640323, 0.014267891, -0.8521418, -0.523052, -0.008209221, -0.007786402, -0.006337689, -0.078196526, 0
685, 956656990, 0.014274075, -0.8521604, -0.5230216, -0.008202953, -0.020549998, 0.0067235213, -0.093761444, 0
686, 956673657, 0.014280694, -0.8519967, -0.52328825, -0.008194982, -0.007265694, -0.0038610466, -0.08289051, 0
687, 956690324, 0.01427553, -0.8519396, -0.5233813, -0.0081907865, -0.0066149286, 0.014392474, -0.07552338, 0
688, 956706991, 0.014275235, -0.8520129, -0.523262, -0.008193994, -0.0062605143, -8.124556E-4, -0.086452484, 0
689, 956723658, 0.014287166, -0.8519848, -0.5233073, -0.008196704, 0.0020497255, 0.010172975, -0.07399368, 0
690, 956740325, 0.014297171, -0.8520425, -0.5232132, -0.008195358, 0.009377654, -0.010150533, -0.09291077, 0
691, 956756992, 0.014302337, -0.8520401, -0.52321696, -0.008193109, 0.007171602, -0.0031962493, -0.094742775, 0
692, 956773659, 0.014293107, -0.8520785, -0.5231548, -0.008194457, 0.013516457, -0.021713285, -0.08665848, 0
693, 956790326, 0.014290617, -0.85204685, -0.52320635, -0.008197125, 0.012276344, -0.0014569203, -0.08182907, 0
694, 956806993, 0.01429477, -0.8519827, -0.52331054, -0.008195994, 0.017031295, -0.012132569, -0.06911087, 0
695, 956823660, 0.014281538, -0.8520164, -0.5232559, -0.008203828, 0.006809804, -0.0036055783, -0.07446861, 0
696, 956840327, 0.014267279, -0.85203815, -0.52322066, -0.008209608, -0.009500767, -0.0041540023, -0.081181526, 0
697, 956856994, 0.0142678125, -0.8520192, -0.5232517, -0.008215626, -0.0036303464, 4.1460257E-4, -0.09784126, 0
698, 956873661, 0.0142766535, -0.8520795, -0.5231534, -0.008214561, 0.0046640937, -0.0052123084, -0.09410095, 0
699, 956890328, 0.014272875, -0.8521433, -0.5230494, -0.008219964, -0.0023632373, 0.0033926193, -0.076740265, 0
700, 956906995, 0.014260945, -0.8521338, -0.52306485, -0.008229826, 0.002000853, -0.0011511756, -0.08714962, 0
701, 956923662, 0.014264654, -0.8521244, -0.52308005, -0.008231348, 0.009716855, -0.007770023, -0.08055496, 0
702, 956940329, 0.014263115, -0.8521312, -0.52306926, -0.008233758, 0.011137476, -0.009246151, -0.09159851, 0
703, 956956996, 0.014253658, -0.85212725, -0.52307606, -0.008230609, 0.01984496, -0.0072609372, -0.07542992, 0
704, 956973663, 0.01425759, -0.8521224, -0.52308345, -0.008232452, 0.0049726954, -0.011186258, -0.09508324, 0
705, 956990330, 0.014248319, -0.8520568, -0.5231905, -0.008238413, -0.0036803083, -0.010379425, -0.08542824, 0
706, 957006997, 0.0142381685, -0.85207444, -0.5231622, -0.008231321, 0.005571633, -0.004094254, -0.08761978, 0
707, 957023664, 0.014237398, -0.8521375, -0.52305967, -0.008229669, -0.009120935, 0.0017060324, -0.09329414, 0
708, 957040331, 0.014239152, -0.852109, -0.52310604, -0.008225172, -0.006632391, 0.0028963229, -0.08659935, 0
709, 957056998, 0.014233392, -0.85212153, -0.52308595, -0.008222405, -0.009063171, 0.0026134811, -0.095047, 0
710, 957073665, 0.014236983, -0.85212654, -0.5230777, -0.0082208915, -0.0038595868, -0.0030278042, -0.0822382, 0
711, 957090332, 0.014237015, -0.8521248, -0.52308035, -0.008214244, -0.009142539, -0.007252255, -0.09539795, 0
712, 957106999, 0.014237016, -0.8521144, -0.5230976, -0.008214922, -0.0080454815, -0.010914005, -0.07903862, 0
713, 957123666, 0.0142350625, -0.8521341, -0.5230654, -0.008214217, 0.01926857, -0.009387097, -0.07901478, 0
714, 957140333, 0.014235225, -0.85215217, -0.523036, -0.008212004, 0.017128734, -0.009755279, -0.08103371, 0
715, 957157000, 0.014227844, -0.85216016, -0.5230232, -0.008209846, 0.011738768, 0.0023325253, -0.09610176, 0
716, 957173667, 0.014232023, -0.852161, -0.52302176, -0.008209481, -0.0010776956, -0.0066718967, -0.07652855, 0
717, 957190334, 0.014231272, -0.8521298, -0.5230725, -0.008208286, -0.0017222442, 0.0030815871, -0.08458996, 0
718, 957207001, 0.014233658, -0.8520474, -0.5232068, -0.008203283, -0.012405542, 5.634622E-4, -0.09141445, 0
719, 957223668, 0.014194798, -0.8519727, -0.5233293, -0.008217953, 0.011017757, 0.0025894046, -0.08562088, 0
720, 957240335, 0.014194067, -0.852043, -0.523215, -0.00821482, -0.0017724996, 0.0073937387, -0.08266163, 0
721, 957257002, 0.014187653, -0.85205734, -0.5231917, -0.00822221, -0.012602938, 0.0024700137, -0.08208847, 0
722, 957273669, 0.01418744, -0.8519589, -0.5233522, -0.008222973, -0.006680104, -0.00315916, -0.08054447, 0
723, 957290336, 0.014184702, -0.8519421, -0.5233792, -0.00822618, 0.0013923739, -0.010576018, -0.077973366, 0
724, 957307003, 0.014176707, -0.85187066, -0.5234957, -0.008226461, 0.014419805, -0.014346577, -0.08610058, 0
725, 957323670, 0.0141801555, -0.8518507, -0.5235281, -0.008219925, -0.0033380124, -0.0013962575, -0.101843834, 0
726, 957340337, 0.014173992, -0.8518007, -0.5236098, -0.008215417, 0.0023506996, 3.7537605E-4, -0.09171677, 0
727, 957357004, 0.014174889, -0.8517368, -0.52371365, -0.008211205, 0.0076783127, -0.0046280595, -0.087635994, 0
728, 957373671, 0.014163585, -0.85190284, -0.52344376, -0.008218144, 4.8787988E-4, -0.008866402, -0.08323097, 0
729, 957390338, 0.014166135, -0.8519297, -0.52339983, -0.008216892, -8.035291E-5, -0.0010240525, -0.0956316, 0
730, 957407005, 0.014155415, -0.85217154, -0.52300656, -0.00822008, -1.0804058E-4, -3.592971E-5, -0.08274078, 0
731, 957423672, 0.014154556, -0.852191, -0.52297485, -0.008221558, 0.0027756467, 7.0099253E-4, -0.07784748, 0
732, 957440339, 0.014150939, -0.85220367, -0.52295417, -0.008224794, 0.0025168466, 0.0050933785, -0.07928181, 0
733, 957457006, 0.014147148, -0.8521784, -0.5229955, -0.008220746, -0.010692888, 0.0017307306, -0.07619667, 0
734, 957473673, 0.01414954, -0.8522025, -0.522956, -0.00822932, -5.4007716E-4, -0.0104370145, -0.07224274, 0
735, 957490340, 0.014142195, -0.8522241, -0.5229209, -0.008231278, 0.006613252, -0.008366034, -0.08239174, 0
736, 957507007, 0.014140299, -0.8523016, -0.5227948, -0.008236016, 0.012532672, -0.0066569773, -0.08960438, 0
737, 957523674, 0.014143582, -0.852273, -0.5228414, -0.008231863, -0.001275756, -0.012426678, -0.08723259, 0
738, 957540341, 0.014152498, -0.85228354, -0.522824, -0.008223942, 3.6449375E-4, -0.008719841, -0.08981323, 0
739, 957557008, 0.014153925, -0.85226727, -0.5228506, -0.00822182, 0.002185391, -0.012334653, -0.07712841, 0
740, 957573675, 0.014153614, -0.8522783, -0.5228327, -0.008226109, -0.0117667, 0.004920568, -0.0987978, 0
741, 957590342, 0.014145697, -0.85231066, -0.5227798, -0.00822896, -0.018979652, 0.010788593, -0.08270168, 0
742, 957607009, 0.014154689, -0.85230154, -0.52279454, -0.008218847, -0.025563791, -0.0056252764, -0.070773125, 0
743, 957623676, 0.014170843, -0.8523754, -0.52267355, -0.008225069, -0.008711355, 0.0051441365, -0.07898712, 0
744, 957640343, 0.014165059, -0.85240376, -0.5226276, -0.008221952, -0.008623794, 3.900301E-4, -0.09666729, 0
745, 957657010, 0.014174159, -0.85241604, -0.52260727, -0.008222101, 0.01262163, 0.0024466077, -0.08944607, 0
746, 957673677, 0.014169348, -0.852509, -0.52245575, -0.008232598, 0.018395912, -0.0060044453, -0.055592537, 0
747, 957690344, 0.0141674, -0.8524977, -0.5224743, -0.008236415, 0.01436573, -0.00898411, -0.10429478, 0
748, 957707011, 0.014173806, -0.85251385, -0.5224477, -0.008232671, 0.008400204, -0.013178506, -0.07820797, 0
749, 957723678, 0.014181157, -0.85248876, -0.5224885, -0.008227786, 0.006661517, 0.00714902, -0.09627056, 0
750, 957740345, 0.014179846, -0.85245717, -0.52254, -0.008225687, -0.005953498, -0.0026027386, -0.09687424, 0
751, 957757012, 0.0141742965, -0.85244995, -0.52255195, -0.008228542, 7.6384854E-4, -0.0030183329, -0.09909248, 0
752, 957773679, 0.014167064, -0.852449, -0.52255374, -0.008227218, 0.0032338344, 0.0051019136, -0.10812187, 0
753, 957790346, 0.014165386, -0.8524678, -0.5225231, -0.008229094, -0.004154652, -0.0017958567, -0.08753967, 0
754, 957807013, 0.014164504, -0.8524644, -0.5225288, -0.008225748, -0.0077893008, 0.0017329099, -0.09510994, 0
755, 957823680, 0.014156878, -0.8524465, -0.52255833, -0.0082257055, -0.0065413723, -1.1934195E-4, -0.10088062, 0
756, 957840347, 0.014170366, -0.8524393, -0.52256954, -0.008222227, -0.001497432, 4.7137486E-4, -0.08272648, 0
757, 957857014, 0.014176113, -0.85239506, -0.5226416, -0.008228663, 0.006366173, -0.008620126, -0.08788586, 0
758, 957873681, 0.014179785, -0.8524038, -0.52262753, -0.008209831, 0.019587014, -0.017303856, -0.08974171, 0
759, 957890348, 0.014192888, -0.85240453, -0.5226258, -0.008215081, 0.0015655477, -0.004071442, -0.08085346, 0
760, 957907015, 0.014193459, -0.852378, -0.5226691, -0.008214076, 0.014739017, -3.8346443E-5, -0.08823776, 0
761, 957923682, 0.014186271, -0.8524035, -0.52262753, -0.008219375, 0.010206321, -0.018304741, -0.07718754, 0
762, 957940349, 0.014188671, -0.8524071, -0.5226217, -0.008218929, -0.008615516, -0.008131723, -0.08805466, 0
763, 957957016, 0.014189432, -0.85242015, -0.52260023, -0.008221543, -0.003321144, 0.0025079271, -0.078258514, 0
764, 957973683, 0.014198103, -0.85241747, -0.5226041, -0.00823139, 0.007157227, -0.0018349575, -0.09025288, 0
765, 957990350, 0.01419659, -0.8524065, -0.5226221, -0.008233365, 0.0026164707, 0.0072020134, -0.088181496, 0
766, 958007017, 0.014198378, -0.85240453, -0.5226253, -0.0082338555, -0.0071193837, -0.005230797, -0.089071274, 0
767, 958023684, 0.014188881, -0.8524072, -0.5226212, -0.008227962, -0.004267072, 0.014413247, -0.07645416, 0
768, 958040351, 0.014192988, -0.8524145, -0.5226093, -0.008224037, 0.0020268993, 0.010325272, -0.092627525, 0
769, 958057018, 0.014199179, -0.8524102, -0.52261615, -0.008219246, 0.0020190275, -0.0025244323, -0.0727396, 0
770, 958073685, 0.014205495, -0.85241663, -0.52260566, -0.008209058, 0.007109521, -0.00813877, -0.0920763, 0
771, 958090352, 0.014195453, -0.8524122, -0.52261317, -0.008208529, 0.010493661, -0.005368942, -0.08268833, 0
772, 958107019, 0.014202671, -0.8524127, -0.5226124, -0.008199014, 0.012334144, 0.008952001, -0.08774662, 0
773, 958123686, 0.014200444, -0.8524338, -0.522578, -0.008200278, -0.013036232, 0.009481448, -0.09118748, 0
774, 958140353, 0.01420469, -0.852443, -0.52256274, -0.008200055, 0.0014983191, 0.0011623792, -0.09476757, 0
775, 958157020, 0.014195706, -0.85244113, -0.5225664, -0.008199008, 0.0061204485, -0.005526239, -0.087182045, 0
776, 958173687, 0.014204407, -0.85244036, -0.5225672, -0.008191889, -0.001228483, -0.007405641, -0.092432976, 0
777, 958190354, 0.0142044695, -0.8524483, -0.5225543, -0.008207634, 2.394173E-4, -0.0016049278, -0.09910011, 0
778, 958207021, 0.014209656, -0.8524747, -0.52251095, -0.00821139, -0.012369151, 0.0071832314, -0.07714653, 0
779, 958223688, 0.014203346, -0.852466, -0.52252525, -0.008213092, -0.0062846956, -0.002776017, -0.095487595, 0
780, 958240355, 0.014189742, -0.8524778, -0.5225066, -0.008203828, 0.0097626895, -0.0127286855, -0.080797195, 0
781, 958257022, 0.014185497, -0.85251725, -0.5224422, -0.00821039, -0.0018904936, -0.0031121175, -0.08470249, 0
782, 958273689, 0.014175179, -0.8525236, -0.522432, -0.008205216, -0.009180229, -0.0031803239, -0.088394165, 0
783, 958290356, 0.014182008, -0.8525184, -0.52244043, -0.008199042, -0.010072849, 0.0053059044, -0.090898514, 0
784, 958307023, 0.014188712, -0.8524874, -0.5224911, -0.008188719, 0.0057544177, 3.3270603E-4, -0.08081341, 0
785, 958323690, 0.01418396, -0.8524841, -0.5224964, -0.008189418, -0.002393768, -0.009372674, -0.08746815, 0
786, 958340357, 0.014194301, -0.8524869, -0.52249163, -0.008187977, 0.006529058, 0.011217697, -0.08240509, 0
787, 958357024, 0.014199011, -0.85248214, -0.5224992, -0.008196702, -0.0039909007, -0.0064617526, -0.081100464, 0
788, 958373691, 0.014200507, -0.8524701, -0.5225188, -0.008192802, -0.009408177, -7.986956E-4, -0.08806801, 0
789, 958390358, 0.014207039, -0.8524574, -0.52253973, -0.008181755, -1.5970001E-4, -0.0023100064, -0.07917881, 0
790, 958407025, 0.014196354, -0.852468, -0.52252275, -0.008178868, 0.019756772, 0.0016180243, -0.09408283, 0
791, 958423692, 0.014192166, -0.8524848, -0.52249545, -0.008179744, 3.5607012E-4, -0.010932361, -0.08028793, 0
792, 958440359, 0.014180351, -0.852527, -0.5224268, -0.008179353, -9.2294783E-4, 0.003935588, -0.09769058, 0
793, 958457026, 0.014183053, -0.8525249, -0.5224302, -0.008177713, 0.0019725787, -0.009725301, -0.074822426, 0
794, 958473693, 0.014189202, -0.85253656, -0.5224109, -0.008178643, -0.011420639, -0.003250437, -0.09224701, 0
795, 958490360, 0.0141828, -0.85254496, -0.52239746, -0.008174769, -0.0014666291, -0.001181224, -0.098692894, 0
796, 958507027, 0.014186614, -0.8525438, -0.5223993, -0.008174547, 0.010102779, -0.00311751, -0.07456589, 0
797, 958523694, 0.01419733, -0.85253495, -0.52241343, -0.008177634, -0.001473083, -0.0012120688, -0.08508873, 0
798, 958540361, 0.014203521, -0.85254097, -0.5224033, -0.008183257, 0.008064299, 2.893515E-4, -0.088727, 0
799, 958557028, 0.014213533, -0.85254884, -0.5223902, -0.008183004, 0.015367438, 0.007814627, -0.10565567, 0
800, 958573695, 0.01421776, -0.8525264, -0.52242666, -0.008180211, 0.0041529965, 5.58042E-4, -0.08723736, 0
801, 958590362, 0.014230001, -0.852532, -0.5224171, -0.008181965, 2.4508196E-4, -0.003480495, -0.10351753, 0
802, 958607029, 0.014229953, -0.85252225, -0.52243304, -0.008179902, 0.030742628, 0.0043672477, -0.07387829, 0
803, 958623696, 0.01423546, -0.85252166, -0.5224338, -0.00818239, 0.0073244288, 0.0044829994, -0.08058071, 0
804, 958640363, 0.014232641, -0.8525378, -0.52240777, -0.008183085, -8.93535E-4, 0.012668309, -0.082330704, 0
805, 958657030, 0.014245017, -0.8525718, -0.52235186, -0.008182047, 0.0076076686, -0.0051525813, -0.09574795, 0
806, 958673697, 0.014234035, -0.85255575, -0.5223782, -0.008189208, -0.004275691, 0.0020363706, -0.079675674, 0
807, 958690364, 0.014232781, -0.8525209, -0.52243525, -0.008196081, 0.013893789, -0.004265179, -0.07395649, 0
808, 958707031, 0.014226645, -0.8524547, -0.5225434, -0.008192705, -0.001887979, 0.013594058, -0.08679867, 0
809, 958723698, 0.014223368, -0.8524506, -0.52255, -0.008206642, -0.015162525, -0.0073203845, -0.09290981, 0
810, 958740365, 0.0142316995, -0.8523591, -0.52269876, -0.008217648, -0.012949488, -0.008798713, -0.079024315, 0
811, 958757032, 0.014234793, -0.8523799, -0.5226645, -0.00823176, -4.014153E-4, -0.0037670734, -0.07921982, 0
812, 958773699, 0.014226443, -0.8523353, -0.5227374, -0.008235944, -0.00794254, -0.01967549, -0.09005165, 0
813, 958790366, 0.0142138805, -0.85239244, -0.5226445, -0.008237822, 7.415741E-4, -0.005988352, -0.087327, 0
814, 958807033, 0.014209826, -0.85235274, -0.52270925, -0.008239495, 0.010085394, -0.003909786, -0.08294773, 0
815, 958823700, 0.014207627, -0.85239893, -0.52263397, -0.008252447, 0.013326115, -0.009243874, -0.0920372, 0
816, 958840367, 0.014205041, -0.8524344, -0.5225761, -0.008253267, -0.0012511766, -0.0075995033, -0.08768368, 0
817, 958857034, 0.014208753, -0.852367, -0.522686, -0.0082439, 0.011594636, 0.0057034637, -0.08261299, 0
818, 958873701, 0.01421577, -0.85230726, -0.5227833, -0.008241719, 0.006531726, 0.010771257, -0.080994606, 0
819, 958890368, 0.014214945, -0.85223335, -0.52290386, -0.008237128, -0.0034819755, -0.0018153583, -0.08112621, 0
820, 958907035, 0.014217121, -0.8522964, -0.52280104, -0.00823915, -0.004153262, 0.007271882, -0.0864439, 0
821, 958923702, 0.014214817, -0.85229605, -0.5228017, -0.008241754, -0.053012356, 0.009908525, -0.19731903, 0
822, 958940369, 0.014225054, -0.8522994, -0.52279615, -0.008235391, 0.033745363, 0.0060741813, -0.075992584, 0
823, 958957036, 0.014233131, -0.8523048, -0.5227868, -0.00824041, -0.003243669, -1.8523636E-4, -0.0773983, 0
824, 958973703, 0.014236521, -0.8522276, -0.5229126, -0.008233678, 0.009627967, 5.2947423E-4, -0.088355064, 0
825, 958990370, 0.014246556, -0.85223526, -0.5228998, -0.008240849, 0.003590065, -0.0035219844, -0.07430363, 0
826, 959007037, 0.014242074, -0.85223025, -0.52290803, -0.008247035, 0.0040143346, -0.0057604597, -0.08371544, 0
827, 959023704, 0.014242534, -0.8522201, -0.5229244, -0.008252082, 0.0031351184, -0.016395576, -0.07544899, 0
828, 959040371, 0.014233869, -0.8522671, -0.5228481, -0.0082562715, 0.0030978965, 0.006007972, -0.08088112, 0
829, 959057038, 0.014244196, -0.8523343, -0.5227382, -0.0082578445, -0.011113637, -5.7020946E-4, -0.07700634, 0
830, 959073705, 0.014243299, -0.85233885, -0.5227308, -0.00825641, -5.848915E-4, -0.004898447, -0.089818, 0
831, 959090372, 0.014242468, -0.8523354, -0.52273643, -0.008258605, 9.539533E-4, 0.0074618543, -0.09075546, 0
832, 959107039, 0.014244657, -0.8523694, -0.522681, -0.008251846, 0.0032184678, -0.0094651105, -0.0871439, 0
833, 959123706, 0.01423977, -0.85237855, -0.5226663, -0.008255337, -0.006457415, -0.013739103, -0.07141304, 0
834, 959140373, 0.014241197, -0.8524246, -0.522591, -0.008248423, 0.004137595, -0.0011321001, -0.07691479, 0
835, 959157040, 0.014250054, -0.85242224, -0.5225948, -0.0082405945, 0.002608396, 7.716645E-4, -0.08598232, 0
836, 959173707, 0.0142469015, -0.8524251, -0.52259016, -0.00823906, 0.0023848484, -0.0068414593, -0.08358097, 0
837, 959190374, 0.014245111, -0.8524569, -0.5225383, -0.008239392, 0.0028830518, 0.015624519, -0.09744644, 0
838, 959207041, 0.014241739, -0.8524805, -0.5225003, -0.0082416795, 6.540688E-4, -0.0024165942, -0.08013153, 0
839, 959223708, 0.014200995, -0.8524528, -0.52254623, -0.008246484, -0.014147581, 0.011861651, -0.08718777, 0
840, 959240375, 0.014200427, -0.85242754, -0.5225875, -0.008245891, 0.0010929784, -0.0067324825, -0.07785988, 0
841, 959257042, 0.014191054, -0.8524339, -0.52257746, -0.008238139, 0.005267949, 0.0027642685, -0.08151913, 0
842, 959273709, 0.0141914915, -0.85244685, -0.5225564, -0.008232499, 0.0031236354, -0.008005745, -0.09694672, 0
843, 959290376, 0.014192366, -0.85237616, -0.5226718, -0.0082271, -0.0014017127, 0.0035390065, -0.0802784, 0
844, 959307043, 0.014195755, -0.8523782, -0.5226685, -0.008226082, -0.0048359684, 0.0015588353, -0.07722759, 0
845, 959323710, 0.014203514, -0.8523874, -0.5226532, -0.00823096, -0.0043500094, 0.012936713, -0.097844124, 0
846, 959340377, 0.014205691, -0.85238445, -0.52265835, -0.0082157655, 0.0053522205, 0.012498858, -0.097374916, 0
847, 959357044, 0.014213003, -0.8524161, -0.5226067, -0.008206293, 0.0042140083, -0.0012476773, -0.08323097, 0
848, 959373711, 0.014222695, -0.8524349, -0.52257556, -0.008210882, 0.0015297856, -0.010965043, -0.08838177, 0
849, 959390378, 0.014219084, -0.8524234, -0.5225943, -0.008212411, -5.251786E-4, -0.00911891, -0.08334637, 0
850, 959407045, 0.014215695, -0.85244155, -0.5225647, -0.008217528, 0.010097819, -0.004026851, -0.07936001, 0
851, 959423712, 0.014219356, -0.8524349, -0.5225755, -0.008218354, -0.006269608, 0.004922426, -0.09596348, 0
852, 959440379, 0.014206847, -0.8524315, -0.52258134, -0.00822062, 0.0120471595, -0.02151245, -0.08448982, 0
853, 959457046, 0.01420404, -0.85241884, -0.522602, -0.008219165, -0.00826984, 0.0013848863, -0.08422661, 0
854, 959473713, 0.014213375, -0.85241777, -0.52260345, -0.008217897, -0.0042144484, 0.005950432, -0.085697174, 0
855, 959490380, 0.0142129045, -0.85239303, -0.5226438, -0.008215706, 0.018729841, 0.009245005, -0.09194851, 0
856, 959507047, 0.014214899, -0.85239786, -0.52263594, -0.008215115, -0.0032166308, 0.0049695172, -0.07883644, 0
857, 959523714, 0.014213876, -0.85239553, -0.52263975, -0.008208427, -0.0025321573, 0.0046253493, -0.08511734, 0
858, 959540381, 0.014207642, -0.85239494, -0.52264106, -0.008206535, -0.0018410971, -0.0019746323, -0.08994293, 0
859, 959557048, 0.014209411, -0.8524166, -0.5226058, -0.008207294, 0.013699298, -0.0014514582, -0.08376789, 0
860, 959573715, 0.014207614, -0.8524338, -0.5225779, -0.008203144, 0.0018968427, 0.0024408384, -0.09518623, 0
861, 959590382, 0.014208022, -0.8524429, -0.52256304, -0.00820335, -0.0020360423, 0.0077209477, -0.08320236, 0
862, 959607049, 0.0142115345, -0.8524491, -0.52255297, -0.008188007, -0.0042999005, -0.0034291777, -0.074290276, 0
863, 959623716, 0.014216315, -0.8524536, -0.5225456, -0.008181186, -0.006171451, -0.0015376993, -0.090275764, 0
864, 959640383, 0.014218428, -0.8524442, -0.5225611, -0.008174538, 2.787067E-4, -0.0013302932, -0.09421444, 0
865, 959657050, 0.014212962, -0.852439, -0.5225696, -0.008175197, 4.996283E-4, 0.0023042718, -0.08442783, 0
866, 959673717, 0.014215591, -0.85243946, -0.5225689, -0.008166404, -0.0017239763, 0.004245475, -0.06943703, 0
867, 959690384, 0.0142151145, -0.852433, -0.5225794, -0.008163813, 0.0059917327, -0.0018658582, -0.08327961, 0
868, 959707051, 0.014216013, -0.8524579, -0.52253866, -0.008170562, -0.0048009674, -5.4118074E-5, -0.086769104, 0
869, 959723718, 0.014221444, -0.85245293, -0.52254647, -0.008172374, 0.005333061, 0.0017991046, -0.09188366, 0
870, 959740385, 0.014223176, -0.8524579, -0.52253884, -0.008164419, 0.004576833, -0.0034169683, -0.06918526, 0
871, 959757052, 0.014209297, -0.85245186, -0.5225489, -0.00816963, 0.00253558, 0.012776972, -0.08181763, 0
872, 959773719, 0.014209558, -0.85244584, -0.52255857, -0.008170302, -0.002692884, 0.0042072823, -0.078409195, 0
873, 959790386, 0.014198058, -0.85243946, -0.5225693, -0.00817129, -0.011764674, 0.0012045951, -0.103079796, 0
874, 959807053, 0.014181795, -0.8524551, -0.5225444, -0.00816768, -0.0064417063, -0.0058739763, -0.07522106, 0
875, 959823720, 0.014187545, -0.85244966, -0.52255327, -0.008159025, 0.010793182, 0.0028010714, -0.080825806, 0
876, 959840387, 0.014183564, -0.8524613, -0.52253443, -0.00815434, 0.0063663055, -0.0016776044, -0.10267353, 0
877, 959857054, 0.014182551, -0.8524437, -0.5225631, -0.008154883, -0.0037229226, -0.002115229, -0.093574524, 0
878, 959873721, 0.014180387, -0.85245454, -0.52254546, -0.008152604, 0.0024437648, -0.0048252465, -0.09102535, 0
879, 959890388, 0.014176643, -0.85245764, -0.5225403, -0.00816336, 0.0019194594, -0.008823398, -0.07884693, 0
880, 959907055, 0.01418562, -0.852461, -0.52253455, -0.008160813, -0.013135563, 0.0021114151, -0.08880806, 0
881, 959923722, 0.0141959125, -0.8524688, -0.5225217, -0.008157592, 0.0036840104, -0.011161539, -0.07351208, 0
882, 959940389, 0.01418546, -0.8524809, -0.5225021, -0.008170965, 0.03590617, 0.002853094, -0.09169674, 0
883, 959957056, 0.014189634, -0.8524816, -0.5225007, -0.008177054, 0.001791163, -0.011575722, -0.076096535, 0
884, 959973723, 0.014181745, -0.85245496, -0.52254415, -0.008186845, 0.011210041, -0.0027206277, -0.07091427, 0
885, 959990390, 0.014185293, -0.85241663, -0.5226066, -0.008186217, -0.009074905, -0.010182978, -0.08334637, 0
886, 960007057, 0.014194747, -0.85236263, -0.52269465, -0.008173442, -0.008755142, 0.023276277, -0.08714771, 0
887, 960023724, 0.014202231, -0.8523349, -0.52273977, -0.008168513, -0.018190889, -8.052613E-4, -0.09590912, 0
888, 960040391, 0.014207102, -0.85233706, -0.5227361, -0.008175364, 2.8603373E-4, -0.006186259, -0.07596111, 0
889, 960057058, 0.014205302, -0.8523384, -0.52273405, -0.008171745, 6.744923E-4, -0.010089571, -0.0910368, 0
890, 960073725, 0.014200867, -0.8523373, -0.522736, -0.008166965, 0.0016497002, -0.0074674073, -0.090646744, 0
891, 960090392, 0.014205407, -0.85234207, -0.52272797, -0.008169969, 0.0021546858, -0.004091356, -0.07552338, 0
892, 960107059, 0.014208151, -0.8523408, -0.5227302, -0.0081640035, 0.0027070423, -0.0069392044, -0.08025837, 0
893, 960123726, 0.014213892, -0.852343, -0.5227264, -0.008164761, 0.022718053, -0.0040707225, -0.07375145, 0
894, 960140393, 0.014218955, -0.85234106, -0.5227294, -0.008166656, 0.0050995736, -6.909344E-4, -0.08519077, 0
895, 960157060, 0.014219351, -0.85234207, -0.5227278, -0.008164011, 0.002898097, -0.0064463792, -0.07842159, 0
896, 960173727, 0.014228978, -0.8523435, -0.52272534, -0.008159608, 0.0039579743, -0.005209291, -0.08641243, 0
897, 960190394, 0.014223898, -0.8523416, -0.5227283, -0.008160098, -0.0012903054, 0.00763947, -0.088544846, 0
898, 960207061, 0.014233761, -0.8523398, -0.52273095, -0.008160852, -0.0042765993, -8.366928E-4, -0.08493519, 0
899, 960223728, 0.014223919, -0.85234225, -0.52272713, -0.008169077, 0.013666246, 0.0058105825, -0.09005833, 0
900, 960240395, 0.014219185, -0.8523395, -0.5227318, -0.008168193, -0.0033807592, -6.5796624E-4, -0.088131905, 0
901, 960257062, 0.014215909, -0.85233283, -0.522743, -0.008156552, 0.003378559, -0.005156772, -0.08824444, 0
902, 960273729, 0.014222092, -0.8523319, -0.5227444, -0.0081486795, 0.012565332, -0.0031994414, -0.09625244, 0
903, 960290396, 0.01421324, -0.8523278, -0.5227512, -0.008145075, 0.0057064183, 0.00397207, -0.08122921, 0
904, 960307063, 0.014211805, -0.8523321, -0.5227444, -0.008150029, 0.014896768, -7.193066E-4, -0.08978367, 0
905, 960323730, 0.014205918, -0.8523334, -0.5227424, -0.00815255, 0.012281478, 0.0040893652, -0.103209496, 0
906, 960340397, 0.014206301, -0.85233223, -0.52274436, -0.008146608, 0.012658335, -0.007551532, -0.069722176, 0
907, 960357064, 0.014214157, -0.85233384, -0.5227416, -0.0081401365, -0.0030777105, 0.0045391847, -0.09668732, 0
908, 960373731, 0.014207337, -0.85233283, -0.52274334, -0.00814463, 0.0077109872, -0.009576399, -0.0647707, 0
909, 960390398, 0.014209628, -0.85233426, -0.522741, -0.008140574, -0.0060711987, 0.0035802864, -0.096487045, 0
910, 960407065, 0.014201037, -0.85233486, -0.5227402, -0.008144581, 0.0046622846, 0.008933422, -0.09633446, 0
911, 960423732, 0.014203427, -0.8523346, -0.5227406, -0.008134902, -0.011477837, -0.011070471, -0.06906223, 0
912, 960440399, 0.014203906, -0.8523352, -0.52273965, -0.008135629, 0.005613032, 0.010845589, -0.09172535, 0
913, 960457066, 0.014202184, -0.8523377, -0.5227358, -0.008131419, -0.002787032, -0.0038413147, -0.08788395, 0
914, 960473733, 0.014205417, -0.8523329, -0.52274364, -0.008124175, 0.00985016, 0.0047009313, -0.08855343, 0
915, 960490400, 0.0142112365, -0.85232943, -0.52274925, -0.008124395, 0.007009897, -0.008381526, -0.09066391, 0
916, 960507067, 0.014201196, -0.85232884, -0.52275056, -0.0081261, 0.013957483, -0.003594221, -0.07809162, 0
917, 960523734, 0.014198432, -0.8523286, -0.5227508, -0.008117269, 1.2379824E-4, -0.0037130392, -0.086587906, 0
918, 960540401, 0.014197703, -0.85233015, -0.5227483, -0.008116427, 0.0025541384, -0.015870355, -0.08394241, 0
919, 960557068, 0.014203475, -0.85233486, -0.5227405, -0.008111962, 0.008455677, 7.7642116E-4, -0.0860548, 0
920, 960573735, 0.014204792, -0.85233855, -0.5227344, -0.008107005, -2.0846774E-4, -0.0042695026, -0.084311485, 0
921, 960590402, 0.014206567, -0.8523352, -0.52273995, -0.0081043765, 8.8995876E-4, 0.016272016, -0.09101677, 0
922, 960607069, 0.014195813, -0.85233396, -0.5227425, -0.008105323, -0.0059725805, 0.0084957415, -0.07156277, 0
923, 960623736, 0.014207439, -0.8523332, -0.5227434, -0.008102776, 0.009265282, 0.017430985, -0.10119438, 0
924, 960640403, 0.014215987, -0.85228866, -0.52281564, -0.008103496, 0.008944395, 0.005684919, -0.079027176, 0
925, 960657070, 0.014211513, -0.8523155, -0.52277243, -0.008094934, 2.8786375E-4, 0.01210475, -0.08856583, 0
926, 960673737, 0.014196086, -0.85233676, -0.5227382, -0.008088398, -0.010165299, -0.0015740062, -0.08066082, 0
927, 960690404, 0.014191047, -0.8523903, -0.5226512, -0.008083519, 0.005922765, 0.0016689503, -0.08236885, 0
928, 960707071, 0.014189617, -0.8523822, -0.5226643, -0.0080924425, 0.0015380206, 0.0040078247, -0.07364273, 0
929, 960723738, 0.014179779, -0.8523857, -0.5226588, -0.00808837, 0.0012648738, 0.005681713, -0.07955551, 0
930, 960740405, 0.014178914, -0.852381, -0.52266645, -0.008093598, 0.0077458485, 0.0051514846, -0.096634865, 0
931, 960757072, 0.014166747, -0.85235053, -0.5227162, -0.008098631, -0.010170636, 0.0054329573, -0.09759045, 0
932, 960773739, 0.01416872, -0.8523494, -0.5227184, -0.008092879, -0.017327702, 0.011031594, -0.08641338, 0
933, 960790406, 0.014166681, -0.8523515, -0.522715, -0.008091393, -0.0024618905, 0.001754884, -0.092760086, 0
934, 960807073, 0.014164166, -0.85232633, -0.5227561, -0.008092625, -0.0024632525, -0.0018905913, -0.08924961, 0
935, 960823740, 0.014157525, -0.8523564, -0.52270734, -0.008084492, 0.017949816, -0.0037022268, -0.08193016, 0
936, 960840407, 0.014166338, -0.8523524, -0.52271366, -0.008077941, -0.007529516, -0.0057826433, -0.0915966, 0
937, 960857074, 0.014160727, -0.85230166, -0.5227964, -0.0080781635, -0.003629187, -0.010523981, -0.086509705, 0
938, 960873741, 0.014162787, -0.85228884, -0.52281713, -0.008086788, -0.004090853, 0.012057155, -0.076927185, 0
939, 960890408, 0.014157426, -0.8522029, -0.5229575, -0.008083082, -0.011194095, -0.02182977, -0.08973503, 0
940, 960907075, 0.014166435, -0.8522221, -0.5229259, -0.008084353, 0.0035349412, -0.01164828, -0.08160782, 0
941, 960923742, 0.014167163, -0.8522228, -0.5229246, -0.008089865, 0.0042557498, -0.002573109, -0.08504677, 0
942, 960940409, 0.014155617, -0.85220313, -0.52295697, -0.008088067, 0.013109405, 7.681093E-4, -0.08857918, 0
943, 960957076, 0.014158036, -0.85220295, -0.5229572, -0.008087559, -0.009598931, -0.006892127, -0.09093475, 0
944, 960973743, 0.01415091, -0.85223025, -0.5229129, -0.008092848, -0.011102119, -0.002350965, -0.08111572, 0
945, 960990410, 0.014143221, -0.8522057, -0.5229528, -0.008111407, 1.2850598E-4, -3.2190754E-4, -0.08000851, 0
946, 961007077, 0.014152853, -0.8522219, -0.52292633, -0.008101272, 0.007309335, -0.012434654, -0.07872391, 0
947, 961023744, 0.014143565, -0.85222465, -0.52292204, -0.0081076585, -0.0053822617, -0.013839846, -0.0945158, 0
948, 961040411, 0.014150275, -0.8522147, -0.52293813, -0.008101164, 0.014434565, -0.008194425, -0.080449104, 0
949, 961057078, 0.014149648, -0.85223526, -0.52290463, -0.008100075, 0.014229931, -0.0052226526, -0.07779312, 0
950, 961073745, 0.014142994, -0.8522537, -0.5228747, -0.008101703, -0.009464684, -0.0053790347, -0.08603001, 0
951, 961090412, 0.014140245, -0.85226315, -0.5228594, -0.008102425, -0.009794435, -0.0051455894, -0.07846928, 0
952, 961107079, 0.014146835, -0.85223955, -0.5228977, -0.00810486, 0.0022302892, -9.896734E-5, -0.08604145, 0
953, 961123746, 0.014150969, -0.8522283, -0.52291596, -0.008109116, 0.009045695, 0.0074205324, -0.0718832, 0
954, 961140413, 0.014149288, -0.8522438, -0.52289075, -0.0081091, -0.002479995, -0.0018296002, -0.077718735, 0
955, 961157080, 0.0141468095, -0.8522512, -0.5228788, -0.00810562, 0.006367444, 0.00663596, -0.0882082, 0
956, 961173747, 0.014148977, -0.85223335, -0.522908, -0.008098153, 0.006090826, 0.0029578935, -0.08905029, 0
957, 961190414, 0.014148502, -0.8522254, -0.5229207, -0.008096269, 0.008060785, 0.0051676193, -0.073553085, 0
958, 961207081, 0.014149859, -0.85222983, -0.5229137, -0.0080906125, 0.0054857065, 0.0014643731, -0.095770836, 0
959, 961223748, 0.014208282, -0.8522264, -0.5229156, -0.008229964, 7.201797E-4, -0.009939775, -0.07439327, 0
960, 961240415, 0.014212051, -0.8522388, -0.52289546, -0.008224799, -7.442283E-4, -0.0067216074, -0.077898026, 0
961, 961257082, 0.014208067, -0.8522144, -0.5229349, -0.008232737, 0.010615426, -0.00767496, -0.08765793, 0
962, 961273749, 0.01420699, -0.85221267, -0.52293766, -0.00824146, 0.011095616, -3.3659653E-5, -0.08348179, 0
963, 961290416, 0.014208244, -0.85225976, -0.52286094, -0.008250198, -0.012195747, 1.0025953E-4, -0.103461266, 0
964, 961307083, 0.014212808, -0.8522788, -0.5228298, -0.008248851, -0.015586257, -0.004591445, -0.08694935, 0
965, 961323750, 0.014212378, -0.8522864, -0.5228172, -0.008250665, 0.001530498, -0.007394549, -0.086055756, 0
966, 961340417, 0.014207966, -0.8522869, -0.5228165, -0.008250925, -0.0106717795, 0.0032570588, -0.08183384, 0
967, 961357084, 0.014206401, -0.85227925, -0.52282935, -0.008239459, -0.0126533825, -0.0089485645, -0.07772255, 0
968, 961373751, 0.014208802, -0.8522464, -0.5228827, -0.008242144, -0.0045521907, -0.0027416798, -0.07660675, 0
969, 961390418, 0.014218422, -0.8522432, -0.5228877, -0.008246583, -0.0064931354, 0.0053140204, -0.09295845, 0
970, 961407085, 0.014219372, -0.85223335, -0.52290374, -0.008242576, 0.0015288985, -0.0072809346, -0.07420254, 0
971, 961423752, 0.01421811, -0.85224175, -0.5228901, -0.008244592, 0.015541806, -0.002573123, -0.07904148, 0
972, 961440419, 0.014218619, -0.85229266, -0.522807, -0.008245328, 0.010788041, -0.01220973, -0.095817566, 0
973, 961457086, 0.0142231565, -0.8522862, -0.5228175, -0.008243266, -0.011620166, 0.017672136, -0.090563774, 0
974, 961473753, 0.0142152645, -0.8522757, -0.5228346, -0.008252737, -0.0016146646, -0.005163904, -0.09533405, 0
975, 961490420, 0.0142187085, -0.852305, -0.5227869, -0.008247327, -0.008806488, 0.0037448339, -0.089559555, 0
976, 961507087, 0.0142090805, -0.85233766, -0.5227338, -0.008252597, 0.0042763967, -0.0052488456, -0.09105015, 0
977, 961523754, 0.014215142, -0.8523178, -0.52276593, -0.008258114, 0.0076062996, -0.002072468, -0.0783968, 0
978, 961540421, 0.01421123, -0.85230106, -0.5227934, -0.008257312, -0.015647067, -0.002469888, -0.075211525, 0
979, 961557088, 0.014208438, -0.85229915, -0.52279645, -0.008264375, -0.006734655, -0.0128888115, -0.09047222, 0
980, 961573755, 0.014213102, -0.85230106, -0.5227932, -0.008259403, -0.020993775, 0.003972482, -0.07518673, 0
981, 961590422, 0.014214107, -0.8523102, -0.5227784, -0.008253359, -0.0023066048, -0.0076586856, -0.089632034, 0
982, 961607089, 0.014215517, -0.8523185, -0.52276486, -0.0082548745, -0.007954169, -0.0013437739, -0.08658695, 0
983, 961623756, 0.014219786, -0.85230327, -0.5227897, -0.008245291, 0.00561994, -0.01679165, -0.15338802, 0
984, 961640423, 0.014202413, -0.8523157, -0.5227699, -0.008235589, 0.0017867347, -0.010514846, -0.12953663, 0
985, 961657090, 0.014215787, -0.85222524, -0.52291703, -0.008232562, 0.009336632, -0.009925162, -0.07254696, 0
986, 961673757, 0.014221545, -0.85228264, -0.5228234, -0.0082367, 0.0109433895, -0.0023525157, -0.08979988, 0
987, 961690424, 0.014218486, -0.85230094, -0.52279377, -0.008234072, 0.0073732524, 0.0017116761, -0.07248306, 0
988, 961707091, 0.01420417, -0.85230786, -0.52278286, -0.0082399165, -0.0054347804, 0.00115647, -0.09562206, 0
989, 961723758, 0.01420046, -0.8523035, -0.52278984, -0.008249719, -0.00636282, -0.0058706794, -0.0803566, 0
990, 961740425, 0.014189978, -0.85227907, -0.52283, -0.0082597295, -0.0029257496, -0.009835632, -0.07244873, 0
991, 961757092, 0.014199786, -0.85225636, -0.5228668, -0.008247691, -0.018546378, 0.0103445565, -0.07806206, 0
992, 961773759, 0.0142050935, -0.85221833, -0.5229288, -0.008234379, -0.012893505, -0.011492212, -0.08310318, 0
993, 961790426, 0.0141974725, -0.85222936, -0.52291095, -0.008240966, -0.01316038, 0.008614259, -0.07633209, 0
994, 961807093, 0.014198093, -0.8522452, -0.52288526, -0.008231102, 9.206708E-4, -0.0018972479, -0.07875538, 0
995, 961823760, 0.014198545, -0.8522447, -0.5228859, -0.008236916, 0.009750012, 0.0013132853, -0.08100128, 0
996, 961840427, 0.014198718, -0.85225606, -0.5228673, -0.00824113, -0.009792403, 0.0093447, -0.07549572, 0
997, 961857094, 0.014198581, -0.85227746, -0.5228324, -0.008237605, 0.0070573795, -0.011977542, -0.08289528, 0
998, 961873761, 0.014209374, -0.8522613, -0.5228584, -0.008237564, -0.003614854, -0.001217517, -0.08784199, 0
999, 961890428, 0.014207405, -0.85224324, -0.52288777, -0.008240986, -0.0022640536, 0.0046082223, -0.079735756, 0
1000, 961907095, 0.014206025, -0.85224664, -0.5228823, -0.008233622, -0.00868637, 0.0057908297, -0.083660126, 0
1001, 961923762, 0.014215764, -0.85223615, -0.5228995, -0.008230691, 0.0030947116, -0.008228141, -0.08604145, 0
1002, 961940429, 0.014212264, -0.85225725, -0.5228651, -0.008235042, -0.0061313305, 0.013663696, -0.06989956, 0
1003, 961957096, 0.01421534, -0.8522669, -0.52284914, -0.008228051, 0.0065462613, -0.012969619, -0.086377144, 0
1004, 961973763, 0.014207633, -0.85227257, -0.5228405, -0.008217581, -0.005908076, 0.0061988384, -0.10112572, 0
1005, 961990430, 0.014201343, -0.8522537, -0.5228715, -0.008222897, 0.002511664, -0.00367639, -0.079286575, 0
1006, 962007097, 0.014201945, -0.85223544, -0.5229009, -0.008225869, -0.0033282198, 0.0016900792, -0.08182812, 0
1007, 962023764, 0.014198826, -0.8522127, -0.5229381, -0.008224058, -0.009351252, -0.008557571, -0.08206558, 0
1008, 962040431, 0.01420318, -0.8522189, -0.5229279, -0.008218267, 0.009158541, -0.009835534, -0.0846014, 0
1009, 962057098, 0.01420309, -0.85221106, -0.5229407, -0.008220336, -0.006027453, -0.014982108, -0.07956123, 0
1010, 962073765, 0.014199569, -0.8522033, -0.5229535, -0.008210849, 0.017139371, 0.002956727, -0.081744194, 0
1011, 962090432, 0.014197132, -0.85220134, -0.52295685, -0.008202811, 0.0057277917, -0.0027702544, -0.087387085, 0
1012, 962107099, 0.01418783, -0.8522005, -0.5229586, -0.008208871, -0.0022520118, -0.008035954, -0.081474304, 0
1013, 962123766, 0.014185866, -0.85218877, -0.52297765, -0.008218079, 0.0026639742, -0.0034340532, -0.099448204, 0
1014, 962140433, 0.014194401, -0.85220325, -0.52295387, -0.008216005, -0.003831438, 0.0050082407, -0.08011055, 0
1015, 962157100, 0.014193682, -0.85223866, -0.5228963, -0.0082177725, -0.006320115, 0.014805687, -0.09722042, 0
1016, 962173767, 0.014193274, -0.8522483, -0.5228805, -0.008218964, -0.0050798557, 0.009269571, -0.08940983, 0
1017, 962190434, 0.014190517, -0.8522487, -0.5228798, -0.00822356, -0.01401202, -4.4353353E-4, -0.080236435, 0
1018, 962207101, 0.014189679, -0.85225457, -0.52287036, -0.008216996, 5.2818906E-4, 0.0038620105, -0.08063221, 0
1019, 962223768, 0.014189427, -0.85223454, -0.522903, -0.008213665, 0.0052663074, 0.0014393047, -0.06567001, 0
1020, 962240435, 0.014189285, -0.85223514, -0.52290195, -0.008220249, 0.0077883927, -0.004081172, -0.091513634, 0
1021, 962257102, 0.014189037, -0.8522318, -0.5229073, -0.008227134, 0.003407455, 0.0012127883, -0.079135895, 0
1022, 962273769, 0.014179126, -0.8522222, -0.52292323, -0.008228459, 0.0077261585, -0.0039914455, -0.081959724, 0
1023, 962290436, 0.014178978, -0.8522202, -0.5229264, -0.008237056, -0.009958453, -0.020606142, -0.0813427, 0
1024, 962307103, 0.014176793, -0.8522218, -0.5229237, -0.008237733, -0.0021075455, 0.015329133, -0.077960014, 0
1025, 962323770, 0.014188569, -0.8522173, -0.5229307, -0.008233238, 0.0018353626, 0.008659199, -0.07355118, 0
1026, 962340437, 0.014190402, -0.8522233, -0.522921, -0.008228973, -0.009211032, -0.0053530517, -0.09602451, 0
1027, 962357104, 0.014180213, -0.8522223, -0.5229227, -0.008233453, -0.0049708164, -0.013177626, -0.10612106, 0
1028, 962373771, 0.014176031, -0.852224, -0.5229202, -0.008229837, -0.0131249465, 0.0028524862, -0.091404915, 0
1029, 962390438, 0.01417219, -0.8522128, -0.52293867, -0.008222491, -0.012267614, 0.0010974067, -0.09929085, 0
1030, 962407105, 0.014168369, -0.8521486, -0.5230436, -0.008225377, -0.002827418, -0.007922612, -0.09854698, 0
1031, 962423772, 0.014164298, -0.8521555, -0.5230323, -0.008228784, -0.002118323, -0.0103060845, -0.070711136, 0
1032, 962440439, 0.014164838, -0.85215276, -0.52303666, -0.008231968, 0.002072391, -0.006155938, -0.08031368, 0
1033, 962457106, 0.014159868, -0.8521717, -0.5230058, -0.008235762, -0.008086678, -0.003566205, -0.09080696, 0
1034, 962473773, 0.014168467, -0.8521924, -0.52297175, -0.00823744, -0.0057170633, 0.0074251704, -0.09337139, 0
1035, 962490440, 0.014177991, -0.8521885, -0.52297795, -0.00823905, 0.0021621177, 0.0041194274, -0.09715748, 0
1036, 962507107, 0.014176826, -0.85218316, -0.5229866, -0.008239774, -0.01764435, 0.004686005, -0.08142471, 0
1037, 962523774, 0.014169382, -0.85217535, -0.52299947, -0.008241466, 0.0032439134, 0.0029923774, -0.10067749, 0
1038, 962540441, 0.014165843, -0.85218066, -0.52299106, -0.008240951, -0.007213678, 0.0012648458, -0.07240486, 0
1039, 962557108, 0.014160121, -0.8521675, -0.52301276, -0.008237787, 0.0054195607, 0.0097267805, -0.05831337, 0
1040, 962573775, 0.014155507, -0.8521607, -0.52302396, -0.008243507, -0.019372916, -4.6490695E-5, -0.07861233, 0
1041, 962590442, 0.014155163, -0.852152, -0.5230382, -0.008240207, 0.0056285034, -0.008069356, -0.0813303, 0
1042, 962607109, 0.014156243, -0.85215014, -0.523041, -0.008242293, -0.00955997, 0.0060428125, -0.08199787, 0
1043, 962623776, 0.014146234, -0.85215974, -0.5230257, -0.008240187, -0.014536843, -0.01012411, -0.08409977, 0
1044, 962640443, 0.014141777, -0.85216457, -0.5230181, -0.008229995, -0.0052937507, -0.006613273, -0.10296154, 0
1045, 962657110, 0.014138998, -0.8521557, -0.52303267, -0.008231432, -0.0061996696, -0.0141295325, -0.082862854, 0
1046, 962673777, 0.014133835, -0.85215694, -0.5230307, -0.008234462, 0.0026095905, -0.013476595, -0.07199669, 0
1047, 962690444, 0.01413981, -0.85218894, -0.5229784, -0.008235229, 0.0038136619, -0.00667548, -0.06638527, 0
1048, 962707111, 0.014139031, -0.85219127, -0.5229747, -0.008232447, 0.019199483, -0.01628257, -0.08455467, 0
1049, 962723778, 0.014147131, -0.8522035, -0.5229547, -0.008220074, -0.0038412658, -0.004498247, -0.08323097, 0
1050, 962740445, 0.014156057, -0.85217524, -0.5230005, -0.008225986, -0.0018699443, 6.9358866E-5, -0.070384026, 0
1051, 962757112, 0.014149329, -0.85214144, -0.52305573, -0.008225974, -0.0032862062, 0.009167132, -0.08155537, 0
1052, 962773779, 0.014150492, -0.85220927, -0.5229451, -0.008222954, -0.0069111395, -0.0048437, -0.08006573, 0
1053, 962790446, 0.014152934, -0.8521967, -0.5229656, -0.008218901, -0.011831784, -0.015740782, -0.08185387, 0
1054, 962807113, 0.014156213, -0.85212445, -0.52308303, -0.008223997, -0.0018132908, 0.009164527, -0.094283104, 0
1055, 962823780, 0.014168678, -0.8521631, -0.5230201, -0.0082143005, -0.0044467133, -0.00866418, -0.08663273, 0
1056, 962840447, 0.0141649945, -0.8521131, -0.5231015, -0.008213373, 0.007076581, 0.004981824, -0.08397102, 0
1057, 962857114, 0.014170528, -0.85204333, -0.52321535, -0.008194869, 0.01220788, 0.0011930073, -0.07313919, 0
1058, 962873781, 0.014169668, -0.8520269, -0.52324206, -0.008199934, -0.0030946557, 0.0013645606, -0.08502293, 0
1059, 962890448, 0.014169355, -0.85199165, -0.5232993, -0.008205019, -0.009871736, 0.002548732, -0.09008312, 0
1060, 962907115, 0.014169723, -0.8519657, -0.52334136, -0.008208968, -0.008767149, -0.011864941, -0.09681797, 0
1061, 962923782, 0.014169419, -0.85195315, -0.5233618, -0.008213751, 0.0043309755, 0.0064457646, -0.08302975, 0
1062, 962940449, 0.014172044, -0.85196644, -0.52334005, -0.008216365, 3.6063118E-4, 0.004646653, -0.086746216, 0
1063, 962957116, 0.014182616, -0.85199195, -0.52329844, -0.008216738, 0.0012555072, 0.010882078, -0.09218788, 0
1064, 962973783, 0.014176749, -0.85205114, -0.5232021, -0.008215081, -0.0040495726, 0.011170424, -0.081560135, 0
1065, 962990450, 0.014182787, -0.85206664, -0.5231767, -0.00820916, 0.005047719, -0.004031014, -0.07670975, 0
1066, 963007117, 0.014183943, -0.8520875, -0.52314264, -0.008212129, -0.0068269307, 0.0053442786, -0.072081566, 0
1067, 963023784, 0.014179186, -0.8520762, -0.52316135, -0.008205883, 0.004438765, 0.0035941442, -0.09882355, 0
1068, 963040451, 0.014190384, -0.8520829, -0.5231502, -0.008210221, -0.00724344, 0.006230759, -0.09343147, 0
1069, 963057118, 0.014190085, -0.85206974, -0.52317166, -0.008208619, 0.0028340395, 8.646319E-4, -0.085858345, 0
1070, 963073785, 0.014186929, -0.8520329, -0.52323174, -0.008211095, 0.015685553, 0.0046306574, -0.07443619, 0
1071, 963090452, 0.0141784055, -0.8520167, -0.5232585, -0.008208454, 0.0043921275, -0.0069854925, -0.08566284, 0
1072, 963107119, 0.014181155, -0.851981, -0.5233163, -0.008204815, 0.0020998204, -2.5040435E-4, -0.08737373, 0
1073, 963123786, 0.014183677, -0.85197705, -0.5233228, -0.008198697, 0.009784273, -0.007961615, -0.07907009, 0
1074, 963140453, 0.014178973, -0.8519554, -0.5233581, -0.008204527, -0.0073995222, -0.012630515, -0.084747314, 0
1075, 963157120, 0.014190944, -0.8519521, -0.52336335, -0.008196925, 0.0028955895, 0.003487347, -0.092045784, 0
1076, 963173787, 0.014190145, -0.85198325, -0.52331257, -0.008196684, 0.006725051, -0.005638652, -0.09147167, 0
1077, 963190454, 0.014193715, -0.8519796, -0.5233184, -0.008201694, -4.8500215E-4, -0.0072450675, -0.076088905, 0
1078, 963207121, 0.014191366, -0.8519856, -0.52330893, -0.008194844, -0.0020703655, 0.0011955987, -0.080599785, 0
1079, 963223788, 0.014196469, -0.85198784, -0.52330476, -0.008217616, 0.011778044, 0.007077971, -0.0797987, 0
1080, 963240455, 0.014216814, -0.85197365, -0.5233271, -0.0082175275, 0.004280231, -0.015424307, -0.09271526, 0
1081, 963257122, 0.014216133, -0.8519663, -0.5233391, -0.008210658, 0.0036990626, -0.0037077446, -0.08327675, 0
