DeviceTag:,Xsens DOT 5,,,,,,,,,,,,,,,,,
FirmwareVersion:,1.0.0,,,,,,,,,,,,,,,,,
AppVersion:,2020.1.1,,,,,,,,,,,,,,,,,
Measurement Mode:,Sensor fusion Mode - Extended (Quaternion),,,,,,,,,,,,,,,,,
StartTime:,2020-06-15 14:15:13.640 +0200,,,,,,,,,,,,,,,,,
© Xsens Technologies B. V. 2005-2020,,,,,,,,,,,,,,,,,,,
PacketCounter,SampleTimeFine,Quat_W,Quat_X,Quat_Y,Quat_Z,FreeAcc_X,FreeAcc_Y,FreeAcc_Z,Status
1, 1807282252, 0.4273267, 0.003350119, -0.0032162096, 0.9040854, 0.014447373, 0.006745822, 0.15288067, 0
2, 1807298919, 0.4273289, 0.0032265023, -0.003347501, 0.9040844, 0.006732106, 0.00180793, 0.16619778, 0
3, 1807315586, 0.4273285, 0.003138466, -0.003431843, 0.90408456, 0.011048576, -0.002692464, 0.1561594, 0
4, 1807332253, 0.42732376, 0.0030421403, -0.003481064, 0.9040869, -0.0041969568, -0.021325128, 0.16007614, 0
5, 1807348920, 0.42731118, 0.0029814404, -0.003436474, 0.9040932, -0.00339093, 0.004925981, 0.1485014, 0
6, 1807365587, 0.427315, 0.0029615404, -0.003405763, 0.9040916, 0.008497927, -0.011999046, 0.14908504, 0
7, 1807382254, 0.42730853, 0.0029258507, -0.0033783957, 0.9040948, 0.009771394, 0.005151224, 0.16080952, 0
8, 1807398921, 0.4273028, 0.002896947, -0.0033735002, 0.90409774, 0.018396633, 0.003303153, 0.14538574, 0
9, 1807415588, 0.42730692, 0.0028590567, -0.003390116, 0.9040959, 0.012437066, -0.0011133382, 0.15606785, 0
10, 1807432255, 0.42731225, 0.002826905, -0.0034059915, 0.90409327, 0.003531359, 0.014562593, 0.14584732, 0
11, 1807448922, 0.4273187, 0.0028077688, -0.003421996, 0.90409017, 0.0010998601, 0.007346249, 0.14919567, 0
12, 1807465589, 0.4273164, 0.0027935405, -0.003448147, 0.90409124, -0.01878864, -0.007397798, 0.15285587, 0
13, 1807482256, 0.42731795, 0.0027978956, -0.0034460179, 0.9040906, 0.0055960207, -0.006829979, 0.16036224, 0
14, 1807498923, 0.42733398, 0.00278159, -0.0034479345, 0.9040831, -0.0072692437, -0.006375443, 0.1410532, 0
15, 1807515590, 0.42726457, 0.002783661, -0.0034372015, 0.9041159, 0.008110414, 0.0028209274, 0.15460968, 0
16, 1807532257, 0.4271192, 0.002779027, -0.0034246792, 0.90418464, 0.01383034, 0.017037302, 0.1515255, 0
17, 1807548924, 0.42666733, 0.0027751997, -0.0034304871, 0.9043979, 0.0028264627, 0.014161791, 0.15481281, 0
18, 1807565591, 0.4265254, 0.002776296, -0.003440333, 0.90446484, 4.5284335E-4, -0.0025424024, 0.13649178, 0
19, 1807582258, 0.42551997, 0.0027744044, -0.0034411128, 0.90493834, -0.0013846671, -0.008836063, 0.1537342, 0
20, 1807598925, 0.42517152, 0.002765177, -0.003451084, 0.905102, 0.0049445713, 0.006888948, 0.16003227, 0
21, 1807615592, 0.42520025, 0.0027660565, -0.0034546328, 0.90508854, -0.0024584958, -0.014687996, 0.15594292, 0
22, 1807632259, 0.42528865, 0.0027662427, -0.0034640124, 0.905047, -0.0035325629, -0.002694501, 0.17654037, 0
23, 1807648926, 0.42548487, 0.0027631468, -0.0034711862, 0.9049548, 0.002991588, 0.006053949, 0.1573534, 0
24, 1807665593, 0.42569032, 0.0027607116, -0.003462983, 0.9048581, -0.0039802226, 0.010794833, 0.14555264, 0
25, 1807682260, 0.42558828, 0.002759937, -0.0034642508, 0.9049061, 0.00945625, 0.009069164, 0.14992523, 0
26, 1807698927, 0.42547885, 0.0027653477, -0.0034720637, 0.90495753, 0.025383785, 8.189829E-4, 0.1374836, 0
27, 1807715594, 0.42573333, 0.0027660583, -0.00347022, 0.90483785, -0.0016538177, -0.013280567, 0.14507389, 0
28, 1807732261, 0.42596835, 0.0027603165, -0.0034747235, 0.9047273, -6.0269743E-4, -9.4456313E-4, 0.15491867, 0
29, 1807748928, 0.42599186, 0.0027582226, -0.0034760498, 0.9047162, -0.009965013, -6.6692947E-4, 0.14667892, 0
30, 1807765595, 0.42594564, 0.002746704, -0.003479149, 0.90473795, 0.0024306807, 0.010491438, 0.15324211, 0
31, 1807782262, 0.42597735, 0.0027438072, -0.0034724653, 0.90472305, 0.0041486537, 0.0074146204, 0.15265656, 0
32, 1807798929, 0.42567986, 0.00273844, -0.0034700965, 0.9048631, -8.518428E-4, 6.8756775E-4, 0.15337086, 0
33, 1807815596, 0.42566428, 0.0027293519, -0.0034765918, 0.90487045, -0.005446623, 0.0010087917, 0.15715218, 0
34, 1807832263, 0.4255698, 0.0027329666, -0.0034843662, 0.90491486, 0.006048659, -0.004941806, 0.1564312, 0
35, 1807848930, 0.42546812, 0.0027362336, -0.0034744216, 0.9049627, 6.668928E-4, -0.00770672, 0.15310478, 0
36, 1807865597, 0.4254144, 0.0027383424, -0.0034732905, 0.9049878, -0.005572475, -0.004915702, 0.16897106, 0
37, 1807882264, 0.42561594, 0.0027400018, -0.0034716905, 0.9048931, -0.013604435, 0.0042096465, 0.1475792, 0
38, 1807898931, 0.42568308, 0.0027398062, -0.0034802882, 0.9048615, -0.009678612, 0.018431598, 0.14753914, 0
39, 1807915598, 0.42541805, 0.0027385277, -0.003489125, 0.90498614, -0.019240653, 0.0017389194, 0.14795017, 0
40, 1807932265, 0.42538542, 0.0027307125, -0.0034968923, 0.90500146, -0.011275612, 0.005164756, 0.13939285, 0
41, 1807948932, 0.42546153, 0.002727221, -0.003510215, 0.90496564, -0.0010757924, -0.006636144, 0.15118694, 0
42, 1807965599, 0.42583668, 0.0027246168, -0.0035159322, 0.9047891, -0.009283228, -0.003048214, 0.14642811, 0
43, 1807982266, 0.42603865, 0.0027247744, -0.0035254154, 0.904694, -0.009284154, -0.001067538, 0.1472454, 0
44, 1807998933, 0.4264867, 0.0027308024, -0.0035245745, 0.90448284, 0.004780069, 8.675402E-4, 0.15155125, 0
45, 1808015600, 0.42646685, 0.0027325617, -0.0035251887, 0.9044922, 0.004704235, -0.004832984, 0.1611929, 0
46, 1808032267, 0.42601135, 0.002735042, -0.0035345724, 0.9047068, 0.001683613, 0.015521934, 0.15882301, 0
47, 1808048934, 0.42590916, 0.0027418833, -0.0035488745, 0.9047548, -0.015498505, 0.008365457, 0.15736103, 0
48, 1808065601, 0.42513105, 0.0027467136, -0.0035381885, 0.9051207, -0.008944112, 0.0065997597, 0.15529919, 0
49, 1808082268, 0.4261852, 0.0027507113, -0.0035354209, 0.90462494, -0.010410479, 0.012087411, 0.15935898, 0
50, 1808098935, 0.42676502, 0.0027611174, -0.0035318506, 0.9043515, 0.0022975681, -1.6124888E-4, 0.14555645, 0
51, 1808115602, 0.4265328, 0.0027716197, -0.0035326756, 0.9044611, -0.004639874, 0.0024008558, 0.15600109, 0
52, 1808132269, 0.4260044, 0.0027836685, -0.0035396516, 0.90470994, -0.0038752118, -3.958877E-4, 0.14901543, 0
53, 1808148936, 0.42572188, 0.0027918231, -0.003536668, 0.904843, -0.011094265, 0.007823745, 0.15457821, 0
54, 1808165603, 0.42567718, 0.002797319, -0.0035327335, 0.90486383, -0.0027130037, -0.009912123, 0.15095615, 0
55, 1808182270, 0.4260056, 0.0027980548, -0.0035284772, 0.90470934, -0.0050047063, 2.916652E-4, 0.15361309, 0
56, 1808198937, 0.42612952, 0.002806127, -0.0035259626, 0.904651, 0.008314968, 8.520113E-4, 0.1495409, 0
57, 1808215604, 0.42618212, 0.0028161593, -0.0035253053, 0.9046262, -0.00597553, -0.0037802642, 0.1562748, 0
58, 1808232271, 0.4269274, 0.0028204701, -0.0035246683, 0.90427476, -0.01266846, -0.004496699, 0.15907764, 0
59, 1808248938, 0.42657158, 0.0028203297, -0.0035142254, 0.9044426, -0.008319227, 0.0018378099, 0.159379, 0
60, 1808265605, 0.42652285, 0.0028213374, -0.0035184082, 0.9044656, 0.0044380384, -6.29987E-4, 0.1532278, 0
61, 1808282272, 0.4262758, 0.002824573, -0.0035252334, 0.9045821, -0.006346762, 0.006835078, 0.16314125, 0
62, 1808298939, 0.42628127, 0.0028291265, -0.0035216843, 0.9045795, 0.0025118054, -0.0043065907, 0.16280842, 0
63, 1808315606, 0.42614675, 0.0028388184, -0.0035199323, 0.90464276, -0.0071306694, 0.004402294, 0.14780426, 0
64, 1808332273, 0.42616796, 0.0028459353, -0.0035060795, 0.9046328, 0.010264368, 0.0014462074, 0.15000153, 0
65, 1808348940, 0.4262154, 0.0028532548, -0.0035019794, 0.9046104, 0.006522857, 0.0011911695, 0.15281677, 0
66, 1808365607, 0.4263685, 0.002853986, -0.0035041587, 0.9045383, -0.0068614376, 0.0121414745, 0.1632843, 0
67, 1808382274, 0.42632174, 0.002851262, -0.0035028083, 0.9045603, -0.002405043, 0.0048237946, 0.14685726, 0
68, 1808398941, 0.42665616, 0.0028554292, -0.003507392, 0.9044027, 9.3184295E-4, -0.010860739, 0.15693474, 0
69, 1808415608, 0.42654255, 0.0028600348, -0.003509995, 0.90445626, -0.015321064, -0.00999792, 0.14994144, 0
70, 1808432275, 0.42646065, 0.0028499528, -0.0035082216, 0.90449494, -0.0068425452, 0.0045447308, 0.14923191, 0
71, 1808448942, 0.42637327, 0.0028578183, -0.003503026, 0.9045361, -0.014285691, -0.0025726822, 0.1588583, 0
72, 1808465609, 0.42603552, 0.0028604292, -0.0035029617, 0.9046952, 0.0032644207, 0.009614223, 0.1548357, 0
73, 1808482276, 0.42606425, 0.0028636388, -0.003506557, 0.9046817, 0.009654141, 0.0054029175, 0.16823673, 0
74, 1808498943, 0.42632508, 0.002858691, -0.0034953428, 0.9045588, 0.006792475, 0.0063039497, 0.15771008, 0
75, 1808515610, 0.42636403, 0.0028599468, -0.003495303, 0.9045404, -4.5846525E-4, 0.003882214, 0.15354633, 0
76, 1808532277, 0.4266334, 0.0028596052, -0.003491831, 0.90441346, 0.0031648264, -0.01573813, 0.14654446, 0
77, 1808548944, 0.4264747, 0.002865035, -0.0034956294, 0.9044883, -0.009515095, -0.0037571855, 0.15536785, 0
78, 1808565611, 0.42649183, 0.002872525, -0.0034978308, 0.9044802, 0.011720906, 0.009453835, 0.1590147, 0
79, 1808582278, 0.426332, 0.0028697147, -0.003506298, 0.9045554, -0.009941198, 0.011198929, 0.14717388, 0
80, 1808598945, 0.42635465, 0.002867335, -0.0035007377, 0.9045447, -0.0021519512, -0.0037722772, 0.15638828, 0
81, 1808615612, 0.42652494, 0.0028627478, -0.0035098249, 0.9044644, 0.008182858, -0.0010493951, 0.15274334, 0
82, 1808632279, 0.4266443, 0.0028604986, -0.0035088246, 0.90440816, 0.008138746, -0.0040180017, 0.15819073, 0
83, 1808648946, 0.42681533, 0.0028624444, -0.0035056828, 0.90432745, 0.009274107, -0.0070329607, 0.14387894, 0
84, 1808665613, 0.4266544, 0.0028611904, -0.003515501, 0.9044034, -0.0010951646, -0.008337574, 0.14412117, 0
85, 1808682280, 0.4264688, 0.0028643762, -0.0035117434, 0.90449095, -9.307219E-6, 0.0067062834, 0.14137077, 0
86, 1808698947, 0.42655793, 0.0028628565, -0.0035095, 0.90444887, -0.013733511, -0.0052010375, 0.1503725, 0
87, 1808715614, 0.42673287, 0.0028582439, -0.0035147269, 0.9043664, -0.012287186, -9.2872075E-4, 0.15835476, 0
88, 1808732281, 0.42679825, 0.0028606697, -0.0035106132, 0.90433556, 0.0048247315, 0.0019778225, 0.15707016, 0
89, 1808748948, 0.42658994, 0.0028685383, -0.0035052835, 0.90443385, 0.008691626, -0.0024267011, 0.14777851, 0
90, 1808765615, 0.42672452, 0.0028651399, -0.0035002364, 0.90437037, 0.009304144, -0.0037172788, 0.14828014, 0
91, 1808782282, 0.42664045, 0.0028665918, -0.0034950294, 0.90441, -0.002722339, -0.004312829, 0.15281677, 0
92, 1808798949, 0.42655477, 0.0028654565, -0.003490363, 0.9044504, 0.0018686836, 0.003033187, 0.15354156, 0
93, 1808815616, 0.42652547, 0.0028642756, -0.0034857579, 0.90446424, 0.0063710674, 0.02312186, 0.16796589, 0
94, 1808832283, 0.42650542, 0.0028595936, -0.0034810004, 0.9044737, 0.0034928126, -0.0010077667, 0.16012287, 0
95, 1808848950, 0.42649156, 0.0028622504, -0.0034895088, 0.9044804, -0.008988381, -0.010683357, 0.16116524, 0
96, 1808865617, 0.4265097, 0.0028635564, -0.0034901632, 0.9044718, -0.011046449, -0.011174332, 0.14661217, 0
97, 1808882284, 0.42660585, 0.0028660179, -0.0034780651, 0.9044265, 0.0013001644, -0.008182598, 0.1409092, 0
98, 1808898951, 0.42683253, 0.0028737905, -0.003482543, 0.9043196, -0.004292687, -0.0030752677, 0.15131378, 0
99, 1808915618, 0.42686737, 0.0028725744, -0.003486199, 0.90430295, 0.0026615749, 0.0049491697, 0.16019249, 0
100, 1808932285, 0.4268297, 0.0028852695, -0.003486569, 0.9043207, -0.0012826343, -8.204471E-4, 0.14990711, 0
101, 1808948952, 0.42696437, 0.0028873843, -0.0034893048, 0.9042571, 0.005003797, 0.001578879, 0.15544605, 0
102, 1808965619, 0.42663276, 0.002885763, -0.0034865357, 0.9044137, 0.017339258, -0.005540881, 0.15338898, 0
103, 1808982286, 0.4264703, 0.0028873526, -0.0034948527, 0.90449035, 0.010586092, -0.005924065, 0.15205193, 0
104, 1808998953, 0.42662925, 0.0028801132, -0.0035064414, 0.90441525, -0.006090368, 0.001661962, 0.15375805, 0
105, 1809015620, 0.42677867, 0.0028789982, -0.0035018027, 0.90434474, 0.0010734088, -0.01651385, 0.16181469, 0
106, 1809032287, 0.42656678, 0.0028824143, -0.0034991105, 0.90444475, 0.00481939, -0.0097692385, 0.15816116, 0
107, 1809048954, 0.4266094, 0.0028872213, -0.0034903295, 0.90442467, -0.0013576002, -0.0035857372, 0.15757847, 0
108, 1809065621, 0.4264507, 0.0028927957, -0.0034826014, 0.90449953, 0.006456842, 0.0064922925, 0.15510178, 0
109, 1809082288, 0.42654398, 0.002885631, -0.0034792812, 0.90445554, -3.9416685E-4, 0.011711421, 0.14809227, 0
110, 1809098955, 0.42662323, 0.0028818906, -0.0034875555, 0.9044181, -0.0025873005, 0.0028412296, 0.1450243, 0
111, 1809115622, 0.4264549, 0.0028875463, -0.0034798393, 0.90449744, 0.0043406356, 0.009984377, 0.16629314, 0
112, 1809132289, 0.42640603, 0.002894525, -0.0034726555, 0.9045207, 0.012023793, -0.011027421, 0.15017223, 0
113, 1809148956, 0.42658263, 0.0028974977, -0.0034811224, 0.9044373, 0.01680397, -0.016194658, 0.14940166, 0
114, 1809165623, 0.42639095, 0.0029071246, -0.0034883686, 0.90452766, 0.005141322, -0.0043761865, 0.1681633, 0
115, 1809182290, 0.4263216, 0.0028995092, -0.0034985389, 0.90456027, 0.012141687, -2.606938E-4, 0.14521217, 0
116, 1809198957, 0.42615712, 0.0029000419, -0.003495156, 0.90463775, 0.019939903, 0.0068736076, 0.1494627, 0
117, 1809215624, 0.42616457, 0.0029059069, -0.0034803743, 0.9046343, -0.009273371, 0.006783048, 0.1575594, 0
118, 1809232291, 0.42621624, 0.0029065225, -0.0034797369, 0.9046099, 0.004305448, 4.9430935E-4, 0.15373039, 0
119, 1809248958, 0.4262723, 0.0029118862, -0.0034916333, 0.90458345, -0.012600805, 0.007502069, 0.15952396, 0
120, 1809265625, 0.42628562, 0.0028167015, -0.0035204655, 0.90457743, -0.013315741, -0.0093756765, 0.1544609, 0
121, 1809282292, 0.42667413, 0.002807897, -0.0035250075, 0.90439427, -0.006146982, -0.006664642, 0.15487766, 0
122, 1809298959, 0.42679653, 0.0028044335, -0.0035232212, 0.9043365, -0.0042921402, -0.011611092, 0.14824295, 0
123, 1809315626, 0.4267839, 0.0028132314, -0.0035318169, 0.9043424, -0.0071954424, -0.0019028689, 0.15651321, 0
124, 1809332293, 0.42670777, 0.0028136445, -0.0035432596, 0.9043783, 0.003890697, -0.0072752796, 0.14740944, 0
125, 1809348960, 0.42668137, 0.0028197563, -0.0035453683, 0.90439075, -0.0015283292, -0.00775551, 0.15047073, 0
126, 1809365627, 0.42659396, 0.002821316, -0.0035377392, 0.904432, 0.002825312, 3.702597E-4, 0.15941429, 0
127, 1809382294, 0.4265271, 0.0028142761, -0.0035450582, 0.90446347, -2.0291485E-4, -0.010306717, 0.14723492, 0
128, 1809398961, 0.4261121, 0.002811442, -0.0035420724, 0.9046591, -0.009895264, -0.011978041, 0.1607275, 0
129, 1809415628, 0.4261344, 0.0028097369, -0.0035482459, 0.9046486, -0.0028498687, -0.008775653, 0.1501131, 0
130, 1809432295, 0.42615706, 0.0028194864, -0.0035562534, 0.9046378, -0.022882989, -0.008301554, 0.15918446, 0
131, 1809448962, 0.42617574, 0.0028146808, -0.0035531411, 0.904629, -0.0057989913, -0.0052270074, 0.15634727, 0
132, 1809465629, 0.42613584, 0.00281473, -0.0035502173, 0.9046478, -0.0033702436, 0.0027056418, 0.1570139, 0
133, 1809482296, 0.42614132, 0.0028114775, -0.0035530536, 0.90464526, 0.008973429, 0.002021603, 0.14576626, 0
134, 1809498963, 0.42622548, 0.0028111287, -0.003556263, 0.9046056, 0.010462458, 0.012551363, 0.15101814, 0
135, 1809515630, 0.42620182, 0.0028064274, -0.003556577, 0.9046168, -0.004982306, -0.013345655, 0.16571617, 0
136, 1809532297, 0.42627618, 0.0028033764, -0.0035611715, 0.9045818, -0.0072243856, -0.0047512455, 0.16330814, 0
137, 1809548964, 0.42648774, 0.0028015382, -0.0035643452, 0.90448207, 0.0045500533, -0.012100579, 0.16761017, 0
138, 1809565631, 0.4266409, 0.0027872198, -0.0035711452, 0.9044098, -0.014257942, -0.009392265, 0.13927078, 0
139, 1809582298, 0.42695686, 0.002790097, -0.0035810238, 0.90426064, -0.005576002, 0.0019689274, 0.14893246, 0
140, 1809598965, 0.4267295, 0.0027868452, -0.0035738759, 0.904368, -0.009726891, -0.0033149992, 0.15551662, 0
141, 1809615632, 0.42674822, 0.0027922196, -0.0035597219, 0.9043592, -0.0027928154, 0.011524436, 0.14151001, 0
142, 1809632299, 0.42661127, 0.0027829672, -0.0035634644, 0.90442383, 0.01115342, -0.0012029537, 0.14812088, 0
143, 1809648966, 0.4266732, 0.002790263, -0.003570021, 0.9043946, 2.770967E-4, -0.0075225364, 0.15350342, 0
144, 1809665633, 0.42635813, 0.0027975263, -0.003561776, 0.90454316, -0.01605036, -0.007201213, 0.14693642, 0
145, 1809682300, 0.4262632, 0.002793229, -0.0035691776, 0.90458786, -0.0026331083, -0.006590669, 0.15557194, 0
146, 1809698967, 0.4263849, 0.0027785583, -0.0035732638, 0.9045306, 0.0023237646, -0.0027372453, 0.16161633, 0
147, 1809715634, 0.4261822, 0.0027673985, -0.0035802687, 0.9046261, -0.007722247, 0.001465137, 0.15547752, 0
148, 1809732301, 0.42601088, 0.0027698614, -0.003578374, 0.9047068, -0.0068357945, -0.012700522, 0.17263412, 0
149, 1809748968, 0.42600965, 0.0027679135, -0.0035623836, 0.90470743, -0.010872259, -1.5537032E-4, 0.14974785, 0
150, 1809765635, 0.42598948, 0.0027667794, -0.0035681266, 0.9047169, -0.0046402914, -0.0046428503, 0.15503597, 0
151, 1809782302, 0.42602333, 0.0027698928, -0.0035661936, 0.90470093, -0.002008718, -0.012109777, 0.14333248, 0
152, 1809798969, 0.42595437, 0.0027623426, -0.0035688595, 0.9047334, -0.0024198298, -0.0130461035, 0.1440916, 0
153, 1809815636, 0.42581397, 0.0027619642, -0.0035709452, 0.9047995, -0.0031580983, 0.0104532335, 0.16235065, 0
154, 1809832303, 0.4259985, 0.002762857, -0.003569123, 0.9047127, -0.007718374, 1.9304534E-4, 0.16020966, 0
155, 1809848970, 0.42601117, 0.0027653954, -0.0035618453, 0.9047067, -0.008538871, -0.004433638, 0.16714859, 0
156, 1809865637, 0.42596725, 0.0027605798, -0.0035591614, 0.9047274, -0.0052938224, 0.007120684, 0.13952541, 0
157, 1809882304, 0.42594332, 0.0027564042, -0.0035567982, 0.90473866, -0.0023805248, -0.017957177, 0.15584564, 0
158, 1809898971, 0.42597923, 0.0027569025, -0.0035591607, 0.90472174, -0.012808926, -0.022578908, 0.14813805, 0
159, 1809915638, 0.42593783, 0.0027609393, -0.003571694, 0.9047411, -0.0113694025, -0.0034197352, 0.16307831, 0
160, 1809932305, 0.4259393, 0.0027724807, -0.0035695843, 0.9047405, 0.0043199696, -0.015626125, 0.15066719, 0
161, 1809948972, 0.42585394, 0.0027736067, -0.0035693436, 0.9047807, 0.0034834442, 0.00803654, 0.15105915, 0
162, 1809965639, 0.42577797, 0.0027718807, -0.003565767, 0.90481645, 0.007278848, 0.0037079123, 0.15384293, 0
163, 1809982306, 0.42577505, 0.002762964, -0.00355976, 0.9048178, -0.0058504343, 0.002545485, 0.15629292, 0
164, 1809998973, 0.42576492, 0.002752883, -0.0035626173, 0.9048226, -0.0046239365, -0.0072047496, 0.15425968, 0
165, 1810015640, 0.42584035, 0.0027493683, -0.003561687, 0.9047871, -3.7775785E-4, -0.020860864, 0.15503979, 0
166, 1810032307, 0.42579305, 0.0027587395, -0.003557055, 0.90480936, 0.006708303, -0.017665986, 0.15565395, 0
167, 1810048974, 0.42597952, 0.002756927, -0.0035576473, 0.9047216, 0.015260926, -0.0017583414, 0.15138912, 0
168, 1810065641, 0.42592543, 0.0027621582, -0.0035579351, 0.90474707, -0.011976051, -0.005295014, 0.15281391, 0
169, 1810082308, 0.42596167, 0.0027617977, -0.0035698563, 0.90472996, -0.015023736, 0.0057166712, 0.15891361, 0
170, 1810098975, 0.42588705, 0.002756134, -0.0035668951, 0.9047651, -0.010664081, 0.006696236, 0.15634823, 0
171, 1810115642, 0.42598173, 0.0027483855, -0.0035696852, 0.9047206, -0.0061981278, -0.006063668, 0.14936352, 0
172, 1810132309, 0.4259788, 0.0027523162, -0.0035546976, 0.904722, 0.002990448, -0.004664959, 0.14961243, 0
173, 1810148976, 0.42593893, 0.0027575283, -0.0035567943, 0.90474075, -0.00956588, -0.0029410857, 0.16092396, 0
174, 1810165643, 0.42591503, 0.002749948, -0.0035590562, 0.904752, 0.005043643, 0.008611745, 0.14502716, 0
175, 1810182310, 0.4259612, 0.0027442505, -0.003555445, 0.9047303, 0.007763087, 0.0010406135, 0.1543932, 0
176, 1810198977, 0.42591098, 0.002739194, -0.0035571894, 0.904754, 0.0064557088, 0.023299612, 0.1505022, 0
177, 1810215644, 0.42586416, 0.0027387748, -0.0035558385, 0.904776, -7.288321E-4, 0.008418695, 0.14990711, 0
178, 1810232311, 0.42578802, 0.002732, -0.0035512089, 0.90481186, -0.004616199, 0.013320785, 0.15261364, 0
179, 1810248978, 0.42562455, 0.0027365962, -0.003549491, 0.9048888, -0.005754612, 0.0018264693, 0.15855026, 0
180, 1810265645, 0.42561907, 0.0027432078, -0.0035551763, 0.9048914, -0.0045817974, -0.0052447645, 0.14778614, 0
181, 1810282312, 0.4254289, 0.0027466505, -0.003566469, 0.90498066, 0.0011960702, -0.007599931, 0.14703941, 0
182, 1810298979, 0.42549002, 0.0027404136, -0.003554998, 0.9049519, -0.00475659, -0.004585881, 0.15182495, 0
183, 1810315646, 0.4254342, 0.002734237, -0.00355716, 0.9049783, -5.337961E-4, 3.637359E-4, 0.16179657, 0
184, 1810332313, 0.42543364, 0.002739906, -0.003550808, 0.9049785, 0.0067247227, 7.176093E-4, 0.15215206, 0
185, 1810348980, 0.42554748, 0.0027257905, -0.0035588522, 0.9049249, -0.008645736, 0.003223502, 0.16301727, 0
186, 1810365647, 0.42564043, 0.0027219644, -0.003558272, 0.90488136, 0.0023608417, -0.0010910558, 0.15569973, 0
187, 1810382314, 0.4255704, 0.0027231437, -0.0035639135, 0.9049143, 0.004775232, 0.0023474474, 0.16001987, 0
188, 1810398981, 0.42536658, 0.0027265921, -0.003561285, 0.90501004, -0.013560503, 0.001509789, 0.14600277, 0
189, 1810415648, 0.4253323, 0.0027284317, -0.0035595107, 0.9050262, 0.0034509667, -0.010870985, 0.14554405, 0
190, 1810432315, 0.42535135, 0.002729664, -0.0035606355, 0.90501726, -0.0029717584, -0.0073367106, 0.15617657, 0
191, 1810448982, 0.42529532, 0.0027193779, -0.0035525253, 0.90504366, -0.0014273939, 0.010091973, 0.14213562, 0
192, 1810465649, 0.42545077, 0.0027166575, -0.003564926, 0.9049705, -0.006492966, 0.010781339, 0.14983845, 0
193, 1810482316, 0.42544127, 0.0027083468, -0.0035638222, 0.904975, 0.0030501713, -0.0033191254, 0.14833164, 0
194, 1810498983, 0.4255736, 0.0027014532, -0.00355761, 0.9049128, 0.006403344, -0.013339764, 0.16218472, 0
195, 1810515650, 0.42544758, 0.0027066395, -0.0035477767, 0.9049722, -0.001970499, -5.166057E-4, 0.16301632, 0
196, 1810532317, 0.42544904, 0.0027187492, -0.0035404814, 0.9049714, -0.0060328017, 2.2734498E-4, 0.14986324, 0
197, 1810548984, 0.4254347, 0.0027222026, -0.003538176, 0.90497816, 0.002202783, -0.0022356708, 0.15557766, 0
198, 1810565651, 0.42547286, 0.0027221225, -0.003530727, 0.9049602, 3.1120164E-4, -0.0025184418, 0.14959335, 0
199, 1810582318, 0.42600825, 0.002721407, -0.003533241, 0.9047084, -0.01840323, 0.008126519, 0.16046715, 0
200, 1810598985, 0.42595518, 0.0027226333, -0.0035294648, 0.90473336, -0.013083458, 0.01344445, 0.16052532, 0
201, 1810615652, 0.4258628, 0.002725192, -0.0035165034, 0.90477693, 0.005086233, -0.0034967642, 0.15352917, 0
202, 1810632319, 0.42578697, 0.0027315067, -0.003517999, 0.9048126, -0.0017862824, -0.0064753746, 0.15352726, 0
203, 1810648986, 0.42566192, 0.0027435552, -0.0035080777, 0.90487146, 0.002909786, -0.0071247183, 0.1491642, 0
204, 1810665653, 0.42555806, 0.0027484624, -0.0035131506, 0.90492016, -0.014159892, -0.008648146, 0.158185, 0
205, 1810682320, 0.42545748, 0.0027480568, -0.003502596, 0.9049675, 0.0034535632, -0.0032145982, 0.15306282, 0
206, 1810698987, 0.42537597, 0.0027477795, -0.0034856454, 0.9050059, -0.013699703, -0.008801394, 0.14068413, 0
207, 1810715654, 0.42533094, 0.002758252, -0.0034805695, 0.90502703, 2.2967353E-4, 0.0031616187, 0.14900875, 0
208, 1810732321, 0.425619, 0.002764196, -0.0034879586, 0.9048916, -0.0058303354, -0.012195415, 0.15105534, 0
209, 1810748988, 0.42560613, 0.0027611654, -0.0034742274, 0.9048977, -0.0018571744, -0.005293072, 0.14959621, 0
210, 1810765655, 0.4256944, 0.002764086, -0.0034742628, 0.9048562, -0.00422443, -0.0033730008, 0.14987278, 0
211, 1810782322, 0.42554003, 0.0027669002, -0.0034805275, 0.9049288, 0.006973868, 0.0013490876, 0.14894009, 0
212, 1810798989, 0.4254433, 0.0027702912, -0.0034834687, 0.9049743, -0.0017831968, -0.015304481, 0.1416626, 0
213, 1810815656, 0.42551297, 0.0027682956, -0.0034711533, 0.90494156, -0.008119925, 0.008661308, 0.1513195, 0
214, 1810832323, 0.4253492, 0.0027690285, -0.0034578203, 0.90501845, -0.0018626872, -0.0019426926, 0.15294647, 0
215, 1810848990, 0.42533314, 0.002767523, -0.003455446, 0.90502596, -0.0112026995, 0.0013969385, 0.15167141, 0
216, 1810865657, 0.4252513, 0.0027694874, -0.0034568072, 0.9050646, -0.015287008, 0.0056294664, 0.14943886, 0
217, 1810882324, 0.42548296, 0.0027616033, -0.0034531548, 0.90495574, 0.0042663263, -0.01175099, 0.14149666, 0
218, 1810898991, 0.4254835, 0.0027653514, -0.0034552717, 0.90495545, -0.017784748, 0.0015630217, 0.15432262, 0
219, 1810915658, 0.42540956, 0.0027718383, -0.0034620473, 0.9049902, -0.01614704, -0.008148501, 0.15402889, 0
220, 1810932325, 0.42543873, 0.0027633666, -0.003464655, 0.9049765, -0.017982068, 0.0029294281, 0.15350437, 0
221, 1810948992, 0.42580348, 0.0027644846, -0.0034687272, 0.9048049, 0.0046896962, -0.010892222, 0.14878464, 0
222, 1810965659, 0.42578778, 0.002756529, -0.0034638601, 0.9048123, -0.0027873968, 0.00487502, 0.1634388, 0
223, 1810982326, 0.42588162, 0.0027533672, -0.00345545, 0.9047681, 9.762819E-4, 0.0032105253, 0.16530609, 0
224, 1810998993, 0.42568195, 0.0027462493, -0.0034528347, 0.90486217, -0.010328764, -0.012222922, 0.1450491, 0
225, 1811015660, 0.42559248, 0.0027361352, -0.0034596086, 0.90490425, -0.0016822799, -0.004596934, 0.15007687, 0
226, 1811032327, 0.42564443, 0.0027366623, -0.0034583923, 0.90487987, -0.0022528027, 0.013416001, 0.15892887, 0
227, 1811048994, 0.4256036, 0.002739555, -0.0034689724, 0.9048989, -0.004839279, 0.008017112, 0.15723515, 0
228, 1811065661, 0.42561883, 0.0027436865, -0.0034643195, 0.9048917, -0.0134291295, -0.012889313, 0.14233494, 0
229, 1811082328, 0.42553702, 0.0027480454, -0.0034565171, 0.90493023, -0.0059257755, -0.009008955, 0.1512003, 0
230, 1811098995, 0.42540622, 0.0027509101, -0.0034553006, 0.90499175, -0.0067329155, 0.012472663, 0.16506577, 0
231, 1811115662, 0.4253576, 0.0027513113, -0.0034548624, 0.9050146, -0.005262087, 0.007497542, 0.15626621, 0
232, 1811132329, 0.4253184, 0.0027634325, -0.0034507178, 0.90503293, 0.0030396348, -0.0021820462, 0.15523815, 0
233, 1811148996, 0.4252046, 0.0027707382, -0.0034547367, 0.9050864, -0.0040681567, -3.9118173E-4, 0.14981556, 0
234, 1811165663, 0.42525035, 0.0027726297, -0.0034477732, 0.9050649, 0.0044338666, 0.0083991485, 0.1546421, 0
235, 1811182330, 0.42525274, 0.002775375, -0.003443026, 0.9050638, -0.0025773647, -0.013630588, 0.14992142, 0
236, 1811198997, 0.4252403, 0.0027861064, -0.0034262012, 0.9050697, -0.012913102, 0.0068361647, 0.15010452, 0
237, 1811215664, 0.42527306, 0.002788666, -0.0034233183, 0.90505433, -0.005357755, 0.0052595027, 0.16346359, 0
238, 1811232331, 0.42531538, 0.0027918904, -0.0034275663, 0.9050344, 0.005840184, -0.0014873163, 0.14828587, 0
239, 1811248998, 0.42534205, 0.0027892934, -0.0034181073, 0.9050219, 6.8469875E-4, 0.0035777893, 0.15986252, 0
240, 1811265665, 0.4253501, 0.0028318432, -0.0034600273, 0.905018, -0.0015995722, -0.005729753, 0.15063953, 0
241, 1811282332, 0.42546016, 0.0028358365, -0.0034634755, 0.90496624, 0.0013753049, -0.006007864, 0.16094112, 0
242, 1811298999, 0.42527643, 0.002844481, -0.0034614159, 0.9050525, 0.0032854362, -0.0039625214, 0.1537323, 0
243, 1811315666, 0.42533156, 0.002844073, -0.003453864, 0.90502656, -0.00623737, -0.0105554825, 0.1534605, 0
244, 1811332333, 0.42542368, 0.0028433888, -0.0034441294, 0.9049833, 0.0010093933, 0.012954094, 0.15527153, 0
245, 1811349000, 0.4254645, 0.0028425946, -0.0034461354, 0.9049641, -0.009376046, 0.0014914313, 0.16268063, 0
246, 1811365667, 0.4255976, 0.0028329953, -0.003447237, 0.9049015, -0.013724787, -0.0052714944, 0.14598274, 0
247, 1811382334, 0.42569864, 0.002836544, -0.0034482095, 0.904854, -0.01482653, 0.0029349374, 0.15789604, 0
248, 1811399001, 0.42593256, 0.0028428098, -0.0034501702, 0.9047439, -0.0162653, -0.01634791, 0.16287327, 0
249, 1811415668, 0.42594314, 0.0028322022, -0.003445829, 0.904739, 0.0029449856, -0.01175542, 0.16234875, 0
250, 1811432335, 0.42597437, 0.0028307287, -0.003443575, 0.9047243, -0.0066959723, 0.0032250893, 0.15114975, 0
251, 1811449002, 0.4259484, 0.002832531, -0.003439761, 0.9047365, -0.012698388, 0.017284302, 0.15252018, 0
252, 1811465669, 0.42597044, 0.0028302534, -0.0034420667, 0.90472615, -0.007223696, -8.745154E-4, 0.15073776, 0
253, 1811482336, 0.425962, 0.00282531, -0.0034403442, 0.90473014, -0.0070771957, 0.0016106728, 0.15084267, 0
254, 1811499003, 0.42604363, 0.0028265612, -0.0034317845, 0.9046917, -0.0070891446, -0.015269569, 0.14534855, 0
255, 1811515670, 0.42588168, 0.0028205717, -0.003429022, 0.904768, -0.009462595, -0.0116652455, 0.15293217, 0
256, 1811532337, 0.4259347, 0.0028306767, -0.003415968, 0.904743, -0.0034282303, -0.007211587, 0.14421272, 0
257, 1811549004, 0.42587596, 0.0028259787, -0.0034149315, 0.9047707, 0.012189761, -0.021993078, 0.15196133, 0
258, 1811565671, 0.42583308, 0.0028347985, -0.0034136602, 0.904791, -0.0039746724, 0.0033346082, 0.13311958, 0
259, 1811582338, 0.42580494, 0.0028375664, -0.0034153892, 0.9048042, -0.015336177, 0.008666413, 0.15113163, 0
260, 1811599005, 0.4255591, 0.0028352838, -0.0034251744, 0.90491974, 0.0070527294, 0.017478123, 0.15887737, 0
261, 1811615672, 0.42553002, 0.0028325259, -0.0034175133, 0.9049334, 0.0036299892, 6.0578383E-4, 0.14390469, 0
262, 1811632339, 0.42547482, 0.0028267137, -0.0034074567, 0.9049593, 0.009007986, -6.4063264E-4, 0.15114021, 0
263, 1811649006, 0.4254815, 0.002825339, -0.0034084632, 0.90495634, -0.0042975266, -0.004771324, 0.14973927, 0
264, 1811665673, 0.42543757, 0.002831373, -0.0034129538, 0.90497696, -0.0056693754, -0.010025552, 0.15505028, 0
265, 1811682340, 0.4256251, 0.0028266893, -0.0034119731, 0.9048888, -0.0090973675, -0.010737337, 0.14024067, 0
266, 1811699007, 0.4256703, 0.0028284532, -0.003415123, 0.90486753, -0.017582202, -3.0209172E-5, 0.14915657, 0
267, 1811715674, 0.42562512, 0.0028310914, -0.0034035423, 0.9048888, 8.1668055E-4, 0.0090077305, 0.14950371, 0
268, 1811732341, 0.425534, 0.0028427793, -0.0034065025, 0.90493155, 0.0056647663, -0.0014386368, 0.16211033, 0
269, 1811749008, 0.42560017, 0.002841234, -0.0033993823, 0.90490043, 0.0062427884, -0.004169046, 0.15323544, 0
270, 1811765675, 0.42572233, 0.0028526497, -0.0033875443, 0.90484303, -0.007879555, 0.0028869675, 0.17423725, 0
271, 1811782342, 0.42570683, 0.0028583694, -0.0033852619, 0.9048503, -3.0143603E-4, 0.011810857, 0.16030025, 0
272, 1811799009, 0.42572805, 0.0028646053, -0.003386299, 0.9048403, 0.008445774, 0.006811686, 0.15400028, 0
273, 1811815676, 0.42562193, 0.0028661801, -0.003381499, 0.90489024, -0.009565987, 7.9816737E-4, 0.1655531, 0
274, 1811832343, 0.42563072, 0.0028747246, -0.0033769428, 0.9048861, -0.008966696, 0.0054988884, 0.15981674, 0
275, 1811849010, 0.42557675, 0.0028701366, -0.0033780185, 0.9049115, -0.0049967403, -0.009382715, 0.14896202, 0
276, 1811865677, 0.4254936, 0.0028772538, -0.0033761754, 0.90495056, -0.012977308, -0.0146002155, 0.15460682, 0
277, 1811882344, 0.4255117, 0.0028767134, -0.0033758243, 0.90494204, 0.012651315, 0.0016367304, 0.17203236, 0
278, 1811899011, 0.4253729, 0.0028832313, -0.003366321, 0.90500736, 0.0039848755, -0.0038390176, 0.15597534, 0
279, 1811915678, 0.4253984, 0.0028869377, -0.003359421, 0.9049954, -0.0047347057, 8.033841E-4, 0.15686607, 0
280, 1811932345, 0.4254102, 0.002886985, -0.0033526844, 0.90498984, -0.009331105, -0.0075787264, 0.15729809, 0
281, 1811949012, 0.42536286, 0.002881208, -0.0033435063, 0.90501213, 0.008997661, -0.0071681207, 0.13534546, 0
282, 1811965679, 0.4253825, 0.0028806424, -0.0033502325, 0.90500295, 0.003700333, -0.0035055815, 0.15868759, 0
283, 1811982346, 0.42539874, 0.0028840317, -0.0033520227, 0.9049953, 0.0014934053, -0.0023763678, 0.16439056, 0
284, 1811999013, 0.42540655, 0.0028826322, -0.0033536993, 0.9049916, 0.0076683722, -0.0020351082, 0.16336441, 0
285, 1812015680, 0.425442, 0.0028787092, -0.0033349367, 0.90497506, 0.01115277, -2.0706904E-4, 0.15532017, 0
286, 1812032347, 0.42533734, 0.002881014, -0.003328994, 0.9050243, 0.00306035, 0.008505512, 0.15927696, 0
287, 1812049014, 0.4253505, 0.0028863903, -0.0033265147, 0.905018, -0.0077051804, 0.0029597594, 0.13056374, 0
288, 1812065681, 0.4253583, 0.002886603, -0.0033192595, 0.9050143, 0.0029414287, 0.010735597, 0.14852524, 0
289, 1812082348, 0.42543808, 0.0028881528, -0.003325554, 0.9049769, -0.0016340544, -0.002378005, 0.15066051, 0
290, 1812099015, 0.42543253, 0.0028819658, -0.0033194483, 0.9049795, -0.0036676119, 7.985594E-4, 0.14873123, 0
291, 1812115682, 0.4253225, 0.002888119, -0.0033130727, 0.9050312, 0.013546915, 0.0035898355, 0.15656662, 0
292, 1812132349, 0.42531484, 0.0028771881, -0.003305927, 0.9050349, -0.016216574, -0.0038099443, 0.14224243, 0
293, 1812149016, 0.425257, 0.0028826185, -0.0033098802, 0.9050621, -0.003604913, -0.0025230334, 0.1647911, 0
294, 1812165683, 0.42529336, 0.002882756, -0.0033062918, 0.905045, -3.9794997E-4, -0.0012892742, 0.14952183, 0
295, 1812182350, 0.42533284, 0.0028797109, -0.0033006906, 0.90502644, -0.0021421954, 0.0031931864, 0.15360641, 0
296, 1812199017, 0.42532963, 0.002882576, -0.0032967224, 0.905028, -0.013357711, 0.007134735, 0.142622, 0
297, 1812215684, 0.42535162, 0.0028806902, -0.0032904157, 0.9050177, -0.0070090187, -0.003047593, 0.14658356, 0
298, 1812232351, 0.4253154, 0.00287383, -0.0033050026, 0.90503466, -0.0035566823, -0.01448658, 0.17623806, 0
299, 1812249018, 0.4253593, 0.0028690335, -0.0033074373, 0.90501404, -0.0020033868, 0.0047644773, 0.16137314, 0
300, 1812265685, 0.42533782, 0.0028620663, -0.003303013, 0.9050241, 0.0067923763, -0.017254658, 0.15628052, 0
301, 1812282352, 0.4252749, 0.0028713585, -0.0032918523, 0.90505373, -0.014121241, -0.0032629801, 0.15293789, 0
302, 1812299019, 0.42533886, 0.0028750133, -0.0032906607, 0.9050237, -0.017621512, -0.0074823513, 0.15040112, 0
303, 1812315686, 0.4253021, 0.0028731863, -0.003293222, 0.905041, 1.473937E-4, -3.7289382E-4, 0.15580177, 0
304, 1812332353, 0.42533034, 0.0028669185, -0.0032961485, 0.9050277, -0.009998958, 0.012290931, 0.14897919, 0
305, 1812349020, 0.42533278, 0.0028681715, -0.00328885, 0.9050265, -0.002615587, 2.2490816E-4, 0.1639185, 0
306, 1812365687, 0.4253243, 0.0028700847, -0.003283207, 0.9050304, 0.009763451, 0.002368455, 0.14802074, 0
307, 1812382354, 0.4252904, 0.0028775495, -0.00328562, 0.9050465, -0.01445571, 0.008688305, 0.14147949, 0
308, 1812399021, 0.42531547, 0.002886303, -0.0032737171, 0.90503466, 0.0029542353, -0.0040053776, 0.15596485, 0
309, 1812415688, 0.42531395, 0.0028894919, -0.0032744072, 0.9050354, -0.0061734635, -0.0015851486, 0.16263103, 0
310, 1812432355, 0.4252957, 0.0028912297, -0.0032711157, 0.90504396, 0.01101991, -0.0037326908, 0.14832783, 0
311, 1812449022, 0.42530552, 0.0028889708, -0.0032712317, 0.90503937, 4.5827578E-4, 0.0014480872, 0.14749622, 0
312, 1812465689, 0.42530403, 0.0028885289, -0.0032691387, 0.9050401, 0.01252096, -0.00109821, 0.14838886, 0
313, 1812482356, 0.4253097, 0.0028907224, -0.0032687555, 0.9050374, -0.012412948, 0.00438884, 0.13284206, 0
314, 1812499023, 0.42525336, 0.0028834788, -0.0032720785, 0.90506387, -6.6424644E-4, 0.001853462, 0.15616703, 0
315, 1812515690, 0.42527178, 0.0028907103, -0.00326434, 0.9050553, -0.005292268, 5.146072E-4, 0.14967155, 0
316, 1812532357, 0.42526275, 0.002889225, -0.0032617927, 0.9050595, -0.004627013, -0.0069744694, 0.1569786, 0
317, 1812549024, 0.42528772, 0.0028767788, -0.0032654777, 0.90504783, -0.007367349, -5.045779E-4, 0.15207863, 0
318, 1812565691, 0.4251809, 0.002885569, -0.0032604595, 0.905098, 0.0048851753, 0.007598657, 0.15377998, 0
319, 1812582358, 0.42517996, 0.0028876974, -0.0032683446, 0.90509844, -0.01038331, -0.0027862696, 0.15012455, 0
320, 1812599025, 0.42518073, 0.0028941343, -0.0032744883, 0.905098, 0.0033305762, -0.010722346, 0.14957523, 0
321, 1812615692, 0.42518657, 0.0028959922, -0.0032737094, 0.9050953, -0.011588371, -2.178291E-5, 0.15884972, 0
322, 1812632359, 0.42519426, 0.002903618, -0.0032806909, 0.90509164, -0.002979149, 0.00392157, 0.14086437, 0
323, 1812649026, 0.42518216, 0.0029173463, -0.0032812469, 0.9050971, 0.008342553, 0.0012594371, 0.15288734, 0
324, 1812665693, 0.42513, 0.0029235445, -0.0032813177, 0.9051216, 0.007146904, -0.0097803725, 0.14756584, 0
325, 1812682360, 0.42507982, 0.0029198949, -0.003282309, 0.9051452, 0.009939938, -0.009954967, 0.15439224, 0
326, 1812699027, 0.42510572, 0.0029239582, -0.0032637974, 0.90513307, 0.004721858, -0.0036565436, 0.14934921, 0
327, 1812715694, 0.4251787, 0.0029243892, -0.0032686084, 0.9050988, 5.595769E-5, 5.863164E-4, 0.1661768, 0
328, 1812732361, 0.42512622, 0.0029157135, -0.0032796415, 0.9051234, 0.0016233572, 0.0022137237, 0.1534605, 0
329, 1812749028, 0.42513853, 0.0029198814, -0.0032688351, 0.9051177, 0.0155623965, -0.010352292, 0.15966511, 0
330, 1812765695, 0.42515332, 0.0029111668, -0.0032608241, 0.9051108, -0.004064764, 0.0014701146, 0.15755558, 0
331, 1812782362, 0.4252411, 0.0029054468, -0.0032574337, 0.90506953, -0.013247524, -0.0055807475, 0.15281105, 0
332, 1812799029, 0.42530844, 0.0029059616, -0.0032624323, 0.9050379, -0.006229907, 0.018682687, 0.15006828, 0
333, 1812815696, 0.42519104, 0.0029022414, -0.003264964, 0.9050931, -0.0039695143, 0.012189984, 0.14130592, 0
334, 1812832363, 0.4251516, 0.0029050906, -0.0032750962, 0.9051116, -0.0034332988, -0.0029745419, 0.15608406, 0
335, 1812849030, 0.4252449, 0.002904129, -0.0032717795, 0.9050678, -0.004971964, -0.0074978443, 0.14285183, 0
336, 1812865697, 0.4252096, 0.0028926039, -0.0032802979, 0.9050844, -0.01371419, 0.004857757, 0.14897823, 0
337, 1812882364, 0.42519084, 0.0028879123, -0.0032829188, 0.9050932, 0.002013216, 0.007874462, 0.14207554, 0
338, 1812899031, 0.4251864, 0.0028891664, -0.0032928986, 0.9050953, -0.010658057, -0.00675411, 0.14693928, 0
339, 1812915698, 0.42519024, 0.0028874145, -0.0032905457, 0.9050935, -0.010959477, 0.0037610002, 0.15240574, 0
340, 1812932365, 0.42520893, 0.0028981203, -0.0032845112, 0.9050848, -0.0016669002, -0.0051150904, 0.1557827, 0
341, 1812949032, 0.42515126, 0.0029071276, -0.003277636, 0.90511173, 0.0028257188, 0.0028577354, 0.14255333, 0
342, 1812965699, 0.42514154, 0.002905698, -0.0032729516, 0.90511626, 0.0057798196, -0.008670738, 0.14779949, 0
343, 1812982366, 0.42512336, 0.002907266, -0.0032630283, 0.90512484, -0.0028317468, 0.0013246958, 0.16601753, 0
344, 1812999033, 0.42493492, 0.0029212888, -0.0032646216, 0.90521324, -0.0015000819, -0.00332305, 0.14300346, 0
345, 1813015700, 0.4250126, 0.00292617, -0.0032752142, 0.9051768, 0.0032946195, -0.009399999, 0.1525383, 0
346, 1813032367, 0.42502904, 0.0029262924, -0.0032890427, 0.90516907, -0.0040701004, -0.004211743, 0.14941692, 0
347, 1813049034, 0.42502978, 0.0029257478, -0.0032875831, 0.9051687, -0.004404537, -0.015262451, 0.14565563, 0
348, 1813065701, 0.42500812, 0.0029269569, -0.003280987, 0.90517884, -0.0010685063, -0.012480738, 0.1413002, 0
349, 1813082368, 0.42499024, 0.0029256837, -0.0032844192, 0.90518725, 0.0031891465, -0.00476831, 0.16208935, 0
350, 1813099035, 0.42499137, 0.002925644, -0.0032866166, 0.9051867, -0.008154287, -0.004223086, 0.15419865, 0
351, 1813115702, 0.42497954, 0.0029287413, -0.0032822087, 0.90519226, -4.0820363E-4, 0.0011302037, 0.15324402, 0
352, 1813132369, 0.4250016, 0.0029248467, -0.003283427, 0.9051819, -0.0020256499, 0.0011925882, 0.16147327, 0
353, 1813149036, 0.42503077, 0.0029127027, -0.0032771095, 0.9051684, -4.500966E-4, 0.0016183647, 0.16078472, 0
354, 1813165703, 0.42493293, 0.0029142767, -0.003272965, 0.9052142, 1.1928869E-4, -6.8952265E-4, 0.160388, 0
355, 1813182370, 0.4249524, 0.0029133868, -0.0032739148, 0.9052051, -0.018748641, -0.0053649982, 0.15877247, 0
356, 1813199037, 0.42492723, 0.0029135032, -0.003279878, 0.90521693, -0.0070314487, -0.010340284, 0.15527344, 0
357, 1813215704, 0.4249292, 0.0029135074, -0.0032821721, 0.90521604, -0.0024907175, 0.0045429952, 0.15533066, 0
358, 1813232371, 0.4249415, 0.0029158762, -0.003287585, 0.90521026, -0.0012384774, -2.6173628E-4, 0.1526041, 0
359, 1813249038, 0.4249248, 0.0029158713, -0.0032842257, 0.9052181, -0.0015193948, -0.0037926796, 0.16474819, 0
360, 1813265705, 0.42494315, 0.0028451746, -0.0034383778, 0.9052091, 0.0024547905, 0.0059221233, 0.14701176, 0
361, 1813282372, 0.42506424, 0.002848512, -0.0034373049, 0.90515226, -0.0021301736, -0.005840798, 0.15033913, 0
362, 1813299039, 0.42508972, 0.002850282, -0.0034429226, 0.9051403, -0.018288149, -0.00916802, 0.14507198, 0
363, 1813315706, 0.4251283, 0.0028473272, -0.0034348138, 0.90512216, -0.011882215, -0.007476431, 0.15731907, 0
364, 1813332373, 0.4251389, 0.0028573044, -0.003426373, 0.9051173, 0.003556141, -0.005940723, 0.14921284, 0
365, 1813349040, 0.42525643, 0.0028513735, -0.0034270796, 0.90506196, 0.004104543, -0.0012113232, 0.14147568, 0
366, 1813365707, 0.42536387, 0.002848825, -0.0034251385, 0.9050115, -0.0052941106, -9.862195E-4, 0.15130615, 0
367, 1813382374, 0.42538124, 0.0028520268, -0.003414881, 0.90500337, -0.0037819142, -0.0013282554, 0.15025425, 0
368, 1813399041, 0.4253275, 0.002851245, -0.0034081372, 0.90502864, 0.006255541, -0.012941617, 0.15514183, 0
369, 1813415708, 0.42525142, 0.0028510678, -0.0033993223, 0.9050644, 0.0037886947, -0.0055245976, 0.1661396, 0
370, 1813432375, 0.425215, 0.0028485204, -0.003393757, 0.9050815, 4.2499416E-4, -0.00542414, 0.14733505, 0
371, 1813449042, 0.425219, 0.0028464827, -0.0033907185, 0.9050796, 0.007891969, -0.0017270811, 0.14935017, 0
372, 1813465709, 0.42524663, 0.0028392577, -0.0033866914, 0.90506667, -0.008432372, 0.0055011306, 0.13774204, 0
373, 1813482376, 0.42523256, 0.0028337142, -0.0033806597, 0.9050733, 8.306562E-5, 0.015871445, 0.15891457, 0
374, 1813499043, 0.42537406, 0.0028321324, -0.0033696312, 0.905007, -0.0021717856, -0.001532865, 0.14826584, 0
375, 1813515710, 0.42536536, 0.0028411746, -0.003373918, 0.9050111, -2.0932512E-4, -0.013111048, 0.14884186, 0
376, 1813532377, 0.4253644, 0.0028463744, -0.003367853, 0.90501153, 0.009966382, -0.011256468, 0.15451717, 0
377, 1813549044, 0.42535588, 0.0028539011, -0.0033650007, 0.9050154, -0.0054838136, -0.0066378415, 0.14784718, 0
378, 1813565711, 0.42521656, 0.0028573305, -0.003368327, 0.90508085, -0.004964841, 0.009597797, 0.15385723, 0
379, 1813582378, 0.42526016, 0.0028596278, -0.0033744327, 0.90506035, -0.0027678972, 0.012429695, 0.15199566, 0
380, 1813599045, 0.42530933, 0.0028563573, -0.0033852006, 0.9050372, -0.006975214, 0.0040354887, 0.15265751, 0
381, 1813615712, 0.42534274, 0.0028579275, -0.003385771, 0.9050215, 0.005173809, -0.0049662106, 0.15760422, 0
382, 1813632379, 0.42531055, 0.0028557163, -0.0033908885, 0.9050366, -0.0065638735, -0.0014981567, 0.16121483, 0
383, 1813649046, 0.42524642, 0.0028598676, -0.0034006308, 0.9050668, 4.1073823E-4, -0.0018240832, 0.14177418, 0
384, 1813665713, 0.42518625, 0.0028645478, -0.0033842186, 0.9050951, -0.0015454018, -7.4213283E-4, 0.16689491, 0
385, 1813682380, 0.4252012, 0.0028716912, -0.0033699248, 0.9050881, -0.0039798496, -0.0031687336, 0.14719296, 0
386, 1813699047, 0.4253969, 0.0028805947, -0.0033643665, 0.9049962, 0.010386967, -0.011723804, 0.15629101, 0
387, 1813715714, 0.42547467, 0.0028816843, -0.0033639409, 0.9049595, -0.0015793652, -0.010522786, 0.13546753, 0
388, 1813732381, 0.42555407, 0.0028812087, -0.0033617192, 0.9049222, -7.129609E-4, -0.011942346, 0.14619255, 0
389, 1813749048, 0.42560285, 0.0028805216, -0.0033570433, 0.90489924, 0.0059185, -0.0077650733, 0.15365219, 0
390, 1813765715, 0.42558807, 0.002884046, -0.0033518646, 0.9049062, 0.0068905065, 0.009310719, 0.14951038, 0
391, 1813782382, 0.42559528, 0.0028806475, -0.0033574973, 0.9049028, -0.015654474, 0.0013212165, 0.13542461, 0
392, 1813799049, 0.4255843, 0.0028768962, -0.0033499363, 0.904908, 0.0014206492, 0.01798071, 0.15122509, 0
393, 1813815716, 0.4255728, 0.0028804012, -0.0033491077, 0.9049134, -4.7808635E-4, 0.008887104, 0.15775776, 0
394, 1813832383, 0.42557678, 0.0028738843, -0.0033612375, 0.9049115, 0.0052335435, 0.0064948597, 0.15340519, 0
395, 1813849050, 0.42557195, 0.002869946, -0.003370562, 0.9049137, 0.010759761, -0.010479812, 0.15667057, 0
396, 1813865717, 0.42558408, 0.002880776, -0.0033778471, 0.90490794, 0.007608998, -0.0010687464, 0.14960957, 0
397, 1813882384, 0.42561042, 0.002875366, -0.0033852118, 0.90489554, 0.007395097, 0.0054027596, 0.17216301, 0
398, 1813899051, 0.4256111, 0.002884276, -0.003379766, 0.9048952, -0.008593699, -0.0042982562, 0.14731121, 0
399, 1813915718, 0.4255378, 0.0028822252, -0.0033739896, 0.9049298, -0.01744549, 0.009484119, 0.14808655, 0
400, 1813932385, 0.42540795, 0.0028881456, -0.0033688722, 0.90499085, 0.0030492852, 0.0065643773, 0.15003681, 0
401, 1813949052, 0.42544058, 0.0028946197, -0.0033618412, 0.90497553, -0.0013515566, -0.0070567876, 0.1484251, 0
402, 1813965719, 0.42543155, 0.0028951103, -0.0033530076, 0.90497977, 0.010509929, 0.0047292057, 0.1374054, 0
403, 1813982386, 0.4254695, 0.0028947568, -0.0033509312, 0.90496194, 0.005638218, -0.0020163262, 0.14613724, 0
404, 1813999053, 0.42538288, 0.002888978, -0.003357732, 0.9050026, 9.3035435E-4, -0.01142546, 0.15722752, 0
405, 1814015720, 0.42544228, 0.0028886544, -0.0033524928, 0.9049747, -9.4555935E-4, -0.0010456635, 0.14914322, 0
406, 1814032387, 0.42552787, 0.0028881303, -0.0033649176, 0.90493435, 0.001474914, -0.0011979928, 0.1518259, 0
407, 1814049054, 0.42538628, 0.0028805574, -0.0033513564, 0.9050011, 0.007932483, 0.0027563714, 0.15229702, 0
408, 1814065721, 0.4253935, 0.002884071, -0.0033388752, 0.90499777, -4.1980535E-4, -1.0928736E-4, 0.14992523, 0
409, 1814082388, 0.42550492, 0.0028923864, -0.003336273, 0.9049454, -4.5784184E-4, -0.0031908064, 0.1443615, 0
410, 1814099055, 0.42539787, 0.0028850941, -0.003338035, 0.90499574, -0.006293534, -0.012382829, 0.15141582, 0
411, 1814115722, 0.42539564, 0.0028849947, -0.0033308733, 0.90499675, 0.0015586886, -0.01166525, 0.15194893, 0
412, 1814132389, 0.42538837, 0.0028924886, -0.003342709, 0.90500015, -0.01332994, -0.010541416, 0.14974403, 0
413, 1814149056, 0.4254253, 0.002889189, -0.0033460427, 0.9049828, 0.009389638, -3.4185086E-4, 0.15721416, 0
414, 1814165723, 0.42541707, 0.0028917382, -0.0033362077, 0.9049867, -0.014700674, -5.6980087E-5, 0.14974594, 0
415, 1814182390, 0.42541903, 0.002897984, -0.0033313606, 0.9049857, 0.015576466, 0.013932449, 0.15642548, 0
416, 1814199057, 0.42544407, 0.002905059, -0.003347945, 0.9049738, 0.0023742418, 0.01207058, 0.15349293, 0
417, 1814215724, 0.42545, 0.0029108329, -0.0033327462, 0.9049712, 0.0034420611, 0.0079500675, 0.14925957, 0
418, 1814232391, 0.4254045, 0.002915048, -0.003335636, 0.9049925, -3.2845055E-5, 2.2947272E-4, 0.14322376, 0
419, 1814249058, 0.4254412, 0.0029038605, -0.0033357823, 0.90497524, -0.008929542, -0.01600893, 0.16601372, 0
420, 1814265725, 0.42547953, 0.0028978225, -0.003343251, 0.9049572, 0.0051599327, -0.014043368, 0.15991688, 0
421, 1814282392, 0.4254124, 0.0028969655, -0.0033527378, 0.9049888, 0.01068354, 0.0053952266, 0.14413643, 0
422, 1814299059, 0.4253852, 0.0028901496, -0.00335366, 0.9050016, -0.0061447048, -0.004877032, 0.16748905, 0
423, 1814315726, 0.4253292, 0.0028779565, -0.0033525538, 0.9050279, 0.0018286669, 0.019332897, 0.14552307, 0
424, 1814332393, 0.42534405, 0.0028756997, -0.0033504255, 0.90502095, -9.378813E-6, 0.010434519, 0.15138435, 0
425, 1814349060, 0.42524347, 0.0028727804, -0.0033402664, 0.9050682, 0.008985066, 0.0014966043, 0.14108276, 0
426, 1814365727, 0.42523488, 0.0028835882, -0.00334421, 0.9050723, -0.001229915, -0.003689235, 0.14678288, 0
427, 1814382394, 0.42519337, 0.0028799532, -0.0033462315, 0.90509176, -0.0046927067, -0.0052660946, 0.15627384, 0
428, 1814399061, 0.42516592, 0.0028737588, -0.0033482614, 0.9051047, 0.0017749888, 0.008039088, 0.16215801, 0
429, 1814415728, 0.42522213, 0.0028637708, -0.0033497794, 0.9050783, -0.015801238, 0.02443983, 0.16315556, 0
430, 1814432395, 0.4251957, 0.0028721397, -0.003340947, 0.90509075, 0.017435817, 0.020585515, 0.14844036, 0
431, 1814449062, 0.4252704, 0.0028691893, -0.0033418413, 0.90505564, -0.008450338, 0.0060287314, 0.15645981, 0
432, 1814465729, 0.4252905, 0.0028739378, -0.0033533915, 0.90504616, 0.0014107326, 0.007319791, 0.13506413, 0
433, 1814482396, 0.4252392, 0.002883426, -0.0033496364, 0.90507025, -0.012039095, 2.7534788E-4, 0.15562057, 0
434, 1814499063, 0.42529127, 0.0028892406, -0.003349177, 0.90504575, -0.010332797, -0.0063860533, 0.16147232, 0
435, 1814515730, 0.42518643, 0.00288426, -0.003348411, 0.90509504, -0.012785328, 0.0036866593, 0.16750908, 0
436, 1814532397, 0.42517865, 0.002888419, -0.0033279827, 0.90509874, -0.014852267, 0.0028031466, 0.16235161, 0
437, 1814549064, 0.42517817, 0.002892233, -0.003322291, 0.905099, -0.0061304593, -6.038517E-5, 0.14629936, 0
438, 1814565731, 0.425222, 0.0028948307, -0.0033244628, 0.9050784, 0.017423876, 0.0050383094, 0.13806438, 0
439, 1814582398, 0.4252097, 0.0028923184, -0.0033214544, 0.9050842, 0.0042491523, 0.022564167, 0.16676807, 0
440, 1814599065, 0.4252097, 0.002884803, -0.0033267676, 0.90508425, 0.009816121, -0.0089138495, 0.14033604, 0
441, 1814615732, 0.42522058, 0.002886286, -0.0033209769, 0.9050791, 0.003954283, -7.943668E-4, 0.15603352, 0
442, 1814632399, 0.42522603, 0.002889751, -0.0033128415, 0.90507656, -2.5677186E-4, 4.8655889E-4, 0.15775585, 0
443, 1814649066, 0.42524627, 0.0028929503, -0.0033123384, 0.9050671, -0.016808398, -0.007697513, 0.1595192, 0
444, 1814665733, 0.42523888, 0.0028976402, -0.0033174362, 0.90507054, -0.0076232613, -0.0074028354, 0.15053654, 0
445, 1814682400, 0.42520186, 0.002900325, -0.003317965, 0.9050878, 0.0027003326, -0.001456227, 0.16036797, 0
446, 1814699067, 0.4252934, 0.0029058545, -0.00333191, 0.9050447, 0.009962564, -0.005889043, 0.15983391, 0
447, 1814715734, 0.42516997, 0.0029041152, -0.0033141442, 0.9051027, 0.008513415, 0.015464376, 0.14441872, 0
448, 1814732401, 0.4251573, 0.0029048345, -0.0033181882, 0.9051088, 0.004763156, 0.016178584, 0.14223576, 0
449, 1814749068, 0.42513078, 0.0029027846, -0.0033158422, 0.9051213, 0.0010018122, -0.013176602, 0.14650726, 0
450, 1814765735, 0.42511106, 0.0029054654, -0.003322585, 0.90513045, 0.0028931901, -0.006222908, 0.14851093, 0
451, 1814782402, 0.4250931, 0.002904889, -0.0033161063, 0.90513885, 4.3056978E-4, -0.011367382, 0.15111828, 0
452, 1814799069, 0.4250368, 0.0029127686, -0.003314414, 0.9051653, -0.004649346, 0.0034595781, 0.14930534, 0
453, 1814815736, 0.42498377, 0.002906064, -0.0033126774, 0.9051903, -0.013692638, -0.0075561106, 0.14819717, 0
454, 1814832403, 0.42493775, 0.0029129395, -0.003311849, 0.90521187, -0.0022975395, -0.0045311255, 0.14679337, 0
455, 1814849070, 0.42494303, 0.0029163528, -0.0033184884, 0.90520936, 0.0039895987, -4.5169698E-4, 0.15183735, 0
456, 1814865737, 0.42498928, 0.002921797, -0.0033286852, 0.90518767, 0.011641008, 0.004051145, 0.1530838, 0
457, 1814882404, 0.42502478, 0.002924985, -0.0033244742, 0.905171, -0.005635723, 0.0041805734, 0.14967155, 0
458, 1814899071, 0.42502257, 0.0029330587, -0.0033194805, 0.905172, 0.0021189395, 0.010448807, 0.14829636, 0
459, 1814915738, 0.4250634, 0.0029277434, -0.003327614, 0.9051528, -0.006166198, 0.012037993, 0.1629858, 0
460, 1814932405, 0.42503214, 0.0029199289, -0.0033332473, 0.9051675, -0.004765045, -0.0061646784, 0.1562891, 0
461, 1814949072, 0.42503646, 0.0029236146, -0.003338114, 0.90516543, -0.004350643, -0.01579915, 0.14895344, 0
462, 1814965739, 0.4251167, 0.0029372855, -0.003336873, 0.90512764, -0.005425048, -0.00365983, 0.14649963, 0
463, 1814982406, 0.4251208, 0.0029427698, -0.003323438, 0.90512574, -0.0035822717, 0.004531802, 0.1581173, 0
464, 1814999073, 0.42511982, 0.0029436268, -0.003335199, 0.90512615, 0.0025027846, 7.8759505E-5, 0.14136696, 0
465, 1815015740, 0.4250503, 0.0029395882, -0.003345221, 0.9051588, 0.009809699, 0.01074903, 0.15359592, 0
466, 1815032407, 0.42508045, 0.0029383537, -0.0033468194, 0.9051447, 8.6639036E-4, -0.0054333354, 0.15369225, 0
467, 1815049074, 0.4250358, 0.0029428543, -0.0033583452, 0.9051656, 0.0022228635, -0.008735936, 0.1575985, 0
468, 1815065741, 0.42504352, 0.00293079, -0.0033569362, 0.90516204, 0.008199061, 0.0028701124, 0.15436745, 0
469, 1815082408, 0.42509186, 0.0029340002, -0.0033541764, 0.9051393, -2.7732196E-4, 0.0071707433, 0.16396809, 0
470, 1815099075, 0.4250162, 0.0029329716, -0.003347039, 0.90517473, -0.010065958, 0.0026151452, 0.15121555, 0
471, 1815115742, 0.4250079, 0.0029237003, -0.0033475105, 0.9051788, 0.0021183179, 1.561273E-5, 0.14653587, 0
472, 1815132409, 0.42499128, 0.0029189473, -0.0033474742, 0.9051866, 0.01323434, 0.006145065, 0.16172218, 0
473, 1815149076, 0.42498717, 0.002919708, -0.0033589047, 0.90518844, 0.0026771221, 0.008698379, 0.15434551, 0
474, 1815165743, 0.42497045, 0.002913093, -0.0033596235, 0.9051963, 0.008327537, -0.003804264, 0.16009903, 0
475, 1815182410, 0.42500556, 0.0029112294, -0.0033570651, 0.9051798, -0.0138901835, 0.0074269, 0.1554203, 0
476, 1815199077, 0.424992, 0.0029102254, -0.0033405044, 0.90518624, 0.0028141625, 0.0012671063, 0.1579895, 0
477, 1815215744, 0.42497835, 0.0029099048, -0.0033453873, 0.9051927, -0.008395284, -0.0029559142, 0.1557045, 0
478, 1815232411, 0.4249689, 0.0029098855, -0.0033440778, 0.9051971, 0.01990619, -0.0016526155, 0.14642811, 0
479, 1815249078, 0.4249685, 0.0029114045, -0.0033576258, 0.9051972, -1.8841443E-5, 6.070647E-4, 0.16679859, 0
480, 1815265745, 0.425145, 0.0028782235, -0.003387736, 0.90511435, 0.0028267177, 0.012491854, 0.1527834, 0
481, 1815282412, 0.4251593, 0.002880727, -0.0033825294, 0.9051076, 0.009909645, 0.0036239028, 0.14407349, 0
482, 1815299079, 0.4252306, 0.002881965, -0.0033877937, 0.9050741, -0.004953599, -0.0012215568, 0.14451885, 0
483, 1815315746, 0.42522705, 0.0028858702, -0.0033910163, 0.9050758, -2.6453022E-4, 0.014501617, 0.16806602, 0
484, 1815332413, 0.42521417, 0.002889378, -0.003398775, 0.9050818, -0.014429376, -0.010197258, 0.15881062, 0
485, 1815349080, 0.4252097, 0.0028851277, -0.0034000173, 0.9050839, -0.002572821, -0.0018101677, 0.17881966, 0
486, 1815365747, 0.42519662, 0.0028848052, -0.0033994948, 0.9050901, -0.0071696774, -0.0013742109, 0.15288162, 0
487, 1815382414, 0.42519423, 0.0028757963, -0.0034046737, 0.9050912, -0.0027765627, 0.0014511229, 0.15162277, 0
488, 1815399081, 0.42520455, 0.0028709758, -0.0034007318, 0.9050864, -0.0032201267, -0.010454922, 0.15091991, 0
489, 1815415748, 0.42512494, 0.0028709657, -0.0034021335, 0.90512383, 0.010234898, -0.014407132, 0.1615181, 0
490, 1815432415, 0.42510962, 0.002877409, -0.003406783, 0.90513104, -0.0028222082, -0.0025276067, 0.16239452, 0
491, 1815449082, 0.42511746, 0.0028678144, -0.0034090537, 0.9051273, 0.017296167, 2.3229282E-4, 0.15485477, 0
492, 1815465749, 0.4251068, 0.002874563, -0.0034130951, 0.9051323, -0.0049851737, 0.0013282537, 0.16270542, 0
493, 1815482416, 0.42508847, 0.0028766268, -0.0034158463, 0.9051409, 0.0059288647, 0.005521914, 0.14720917, 0
494, 1815499083, 0.4250833, 0.0028774848, -0.003408928, 0.90514326, -0.0141758155, 0.0027439436, 0.14149284, 0
495, 1815515750, 0.42499825, 0.0028811696, -0.00340311, 0.9051832, -0.012991977, -0.0044885906, 0.15300655, 0
496, 1815532417, 0.42497176, 0.0028681718, -0.0034111198, 0.9051956, 0.0028682877, 5.979408E-5, 0.16597652, 0
497, 1815549084, 0.42509177, 0.0028734712, -0.0034088476, 0.90513927, 0.0141153205, -0.010993081, 0.15503311, 0
498, 1815565751, 0.42507058, 0.002878236, -0.0034054, 0.9051492, 0.009512061, -0.0073830294, 0.15271664, 0
499, 1815582418, 0.4250384, 0.002888428, -0.0034146472, 0.9051643, 0.0014721227, -0.011858853, 0.15337849, 0
500, 1815599085, 0.42505062, 0.0028984784, -0.003416652, 0.9051585, 0.0030258137, -0.018729411, 0.15859127, 0
501, 1815615752, 0.4250797, 0.002901716, -0.0034028494, 0.90514493, -0.0053256922, 0.001968009, 0.15458012, 0
502, 1815632419, 0.42512444, 0.0029052019, -0.0034010387, 0.9051239, -0.0041874847, 0.006391489, 0.15035343, 0
503, 1815649086, 0.4250995, 0.0029067476, -0.0034075174, 0.90513563, 0.0057119634, -0.0050205034, 0.15099716, 0
504, 1815665753, 0.42510143, 0.0029106706, -0.0034112725, 0.9051347, -4.462017E-4, -0.006433966, 0.16181278, 0
505, 1815682420, 0.4250734, 0.0029082682, -0.0034304317, 0.9051478, 0.007314569, -0.004021687, 0.14781475, 0
506, 1815699087, 0.42514998, 0.0029116934, -0.0034355978, 0.9051118, 0.018875776, -0.020534916, 0.14459133, 0
507, 1815715754, 0.425133, 0.0029034982, -0.0034349537, 0.9051198, -0.005438729, -0.010005308, 0.14445305, 0
508, 1815732421, 0.42524174, 0.0029012721, -0.0034316087, 0.9050687, -0.0013168345, -0.004054482, 0.15866852, 0
509, 1815749088, 0.42523852, 0.0029049616, -0.0034409792, 0.9050702, -0.007976684, -0.0018387311, 0.15314484, 0
510, 1815765755, 0.42522845, 0.0029166855, -0.0034400604, 0.9050749, 0.0038346136, 0.00482449, 0.13576889, 0
511, 1815782422, 0.42522845, 0.0029204895, -0.0034311954, 0.90507495, -0.010510144, -0.010820421, 0.14580631, 0
512, 1815799089, 0.42519367, 0.0029283112, -0.003430323, 0.9050913, 0.0045909947, -0.010253587, 0.16030598, 0
513, 1815815756, 0.42510334, 0.0029289587, -0.003435307, 0.90513366, 0.013916961, -0.0026576458, 0.17055893, 0
514, 1815832423, 0.4250795, 0.0029323723, -0.0034413366, 0.9051449, -0.0129685085, 0.0030955025, 0.14850903, 0
515, 1815849090, 0.42507893, 0.002933274, -0.0034431943, 0.905145, 0.008447493, 0.015881779, 0.15663433, 0
516, 1815865757, 0.4251117, 0.0029425032, -0.0034441494, 0.90512955, 0.0016716394, 0.011151738, 0.14869118, 0
517, 1815882424, 0.42497933, 0.0029303818, -0.0034573297, 0.9051917, -0.0023802568, 0.0066794376, 0.16380692, 0
518, 1815899091, 0.42496514, 0.0029315755, -0.0034528957, 0.90519834, -0.0018760385, 0.0065970165, 0.15745735, 0
519, 1815915758, 0.42493534, 0.0029396524, -0.0034589572, 0.90521246, -0.0055076326, -0.008578726, 0.15376854, 0
520, 1815932425, 0.42495474, 0.0029321737, -0.0034596978, 0.9052032, -0.0037997186, -0.0040147486, 0.15747356, 0
521, 1815949092, 0.424877, 0.0029349048, -0.0034549348, 0.9052397, 0.005647884, 0.008561372, 0.1442461, 0
522, 1815965759, 0.42485768, 0.0029406135, -0.0034663447, 0.90524876, -0.010536097, 0.001406725, 0.14888382, 0
523, 1815982426, 0.42485604, 0.002932093, -0.0034606769, 0.9052496, 0.008200816, 0.016015342, 0.1584835, 0
524, 1815999093, 0.42486545, 0.0029231715, -0.0034658194, 0.9052452, 0.0064069848, 0.0027798517, 0.1500597, 0
525, 1816015760, 0.42484948, 0.0029217429, -0.0034633323, 0.9052527, 0.010753289, 0.0030425037, 0.14566994, 0
526, 1816032427, 0.4248739, 0.002915068, -0.0034654846, 0.90524125, -0.0062089614, -0.014328738, 0.14953995, 0
527, 1816049094, 0.4248939, 0.0029094622, -0.0034599926, 0.90523183, -0.0035798952, -0.013241746, 0.1579237, 0
528, 1816065761, 0.4249395, 0.0029033173, -0.0034718062, 0.9052104, 0.01019855, 0.0015542558, 0.15091515, 0
529, 1816082428, 0.42494994, 0.0029070163, -0.0034735955, 0.9052055, -2.7132377E-5, 0.005377396, 0.14239311, 0
530, 1816099095, 0.42495692, 0.0028952728, -0.0034809888, 0.90520215, -0.0032728792, 0.0077940025, 0.15211964, 0
531, 1816115762, 0.4249342, 0.002893767, -0.0034831597, 0.905213, 0.0046895496, 0.0061799865, 0.15569305, 0
532, 1816132429, 0.4249759, 0.0028951117, -0.0034784519, 0.90519345, 0.0023805667, -0.0018219807, 0.15901184, 0
533, 1816149096, 0.42498535, 0.0028797945, -0.003483493, 0.90518904, -0.001953044, -0.005556782, 0.16133595, 0
534, 1816165763, 0.42491966, 0.002878962, -0.0034809918, 0.90521985, 0.0049474207, -0.011122714, 0.16659832, 0
535, 1816182430, 0.42489094, 0.002891145, -0.0034855683, 0.9052332, -0.00605615, 0.011080636, 0.15485287, 0
536, 1816199097, 0.424885, 0.0028867407, -0.003487143, 0.905236, 4.8355805E-4, -0.011817474, 0.15953922, 0
537, 1816215764, 0.42488164, 0.00289566, -0.0034881989, 0.90523756, 0.0015053248, 0.014720686, 0.14901066, 0
538, 1816232431, 0.42488575, 0.002905861, -0.0034787871, 0.90523565, 0.005892907, -2.2305895E-4, 0.1523714, 0
539, 1816249098, 0.42485306, 0.00291205, -0.0034864068, 0.90525097, 0.010846307, -0.004012794, 0.15279675, 0
540, 1816265765, 0.42482436, 0.0029208772, -0.0034830642, 0.9052644, 0.0052114194, -0.0067671193, 0.1553011, 0
541, 1816282432, 0.42476657, 0.002929387, -0.0034753701, 0.9052915, -4.138779E-4, -0.0054878728, 0.15583992, 0
542, 1816299099, 0.42479575, 0.0029289068, -0.0034754672, 0.9052778, 0.004258573, -0.008793511, 0.14758205, 0
543, 1816315766, 0.42481065, 0.0029261694, -0.0034742297, 0.9052708, 0.004880205, -1.3774772E-4, 0.14908218, 0
544, 1816332433, 0.4248703, 0.0029211913, -0.0034814836, 0.9052428, 4.5868874E-4, -0.0049385466, 0.15642929, 0
545, 1816349100, 0.42490622, 0.0029285266, -0.0034813958, 0.90522593, 0.009097209, 0.0017974187, 0.15500641, 0
546, 1816365767, 0.42499098, 0.002924582, -0.0034806263, 0.9051861, -7.228252E-4, 0.003948798, 0.1492014, 0
547, 1816382434, 0.42498934, 0.0029258996, -0.003462691, 0.9051871, -0.0026085638, 0.016625918, 0.15330887, 0
548, 1816399101, 0.42494938, 0.0029250227, -0.0034603917, 0.90520585, -0.0022045134, -0.004309658, 0.15592575, 0
549, 1816415768, 0.42492792, 0.0029119905, -0.0034654834, 0.90521586, -0.008463891, -0.007420693, 0.16256523, 0
550, 1816432435, 0.42492768, 0.0029133137, -0.00346756, 0.905216, -0.008434892, 0.011080512, 0.14312553, 0
551, 1816449102, 0.424836, 0.0029120392, -0.0034729082, 0.905259, -0.0051300693, -0.0043130456, 0.1438713, 0
552, 1816465769, 0.42481047, 0.0029102429, -0.003471338, 0.905271, -0.0024064784, 0.0010589921, 0.15216064, 0
553, 1816482436, 0.4248017, 0.002917877, -0.0034744008, 0.9052751, -0.008613161, -0.008323582, 0.14424515, 0
554, 1816499103, 0.42473248, 0.00292077, -0.0034733936, 0.9053076, 3.578687E-4, -0.0033240323, 0.15344238, 0
555, 1816515770, 0.4247099, 0.0029248125, -0.0034758793, 0.9053182, -4.1610256E-4, 0.0077804457, 0.1597395, 0
556, 1816532437, 0.42473692, 0.0029163198, -0.0034742448, 0.9053055, 0.0021096952, -0.0063445857, 0.14567757, 0
557, 1816549104, 0.42473346, 0.0029214458, -0.0034715773, 0.9053071, 9.33439E-4, 0.0028519547, 0.14205837, 0
558, 1816565771, 0.42479882, 0.0029305238, -0.003461201, 0.90527654, -0.0069965334, -8.5373217E-4, 0.1591196, 0
559, 1816582438, 0.42480642, 0.002934548, -0.003464275, 0.90527296, -0.0015104664, 0.0012004304, 0.14551258, 0
560, 1816599105, 0.42472145, 0.002936007, -0.0034719536, 0.90531284, -5.683236E-4, -0.0010945464, 0.15168476, 0
561, 1816615772, 0.42470482, 0.0029319783, -0.003475728, 0.9053205, 8.482596E-4, -0.008398349, 0.1495142, 0
562, 1816632439, 0.42467454, 0.0029298195, -0.0034819217, 0.9053347, 0.0060429014, -0.0053045815, 0.1542368, 0
563, 1816649106, 0.4246415, 0.002944041, -0.003475459, 0.90535027, -0.0035855914, -0.0033207887, 0.15851688, 0
564, 1816665773, 0.42457247, 0.0029357534, -0.0034723491, 0.9053825, -0.0055947425, -0.012883874, 0.13440704, 0
565, 1816682440, 0.4245295, 0.0029288405, -0.0034724097, 0.9054028, 0.0016465449, -0.009900154, 0.1543827, 0
566, 1816699107, 0.4245604, 0.002934897, -0.0034659358, 0.9053883, 0.004374302, -0.007887261, 0.1645689, 0
567, 1816715774, 0.42458934, 0.0029265163, -0.003463147, 0.90537477, -0.001822453, 0.0015464835, 0.15731716, 0
568, 1816732441, 0.424602, 0.0029242635, -0.0034697566, 0.90536886, 0.004494306, 0.0041805925, 0.15151882, 0
569, 1816749108, 0.42458782, 0.0029235668, -0.0034597376, 0.9053755, -0.007890391, 0.0050232313, 0.14812279, 0
570, 1816765775, 0.4246039, 0.002923937, -0.003459576, 0.9053679, -0.0023625887, -4.7200523E-5, 0.15541077, 0
571, 1816782442, 0.42466134, 0.002922426, -0.003452203, 0.90534097, 0.00469677, -0.021158913, 0.15175533, 0
572, 1816799109, 0.42464095, 0.00292071, -0.003460063, 0.90535057, 0.012016963, -0.009833327, 0.15736866, 0
573, 1816815776, 0.42466143, 0.0029149968, -0.0034636753, 0.90534097, 0.0012062051, 1.9654646E-4, 0.1574583, 0
574, 1816832443, 0.42465565, 0.0029205375, -0.0034614003, 0.9053437, -0.0025764932, 0.0033724613, 0.14831066, 0
575, 1816849110, 0.4246329, 0.0029271392, -0.0034589188, 0.9053544, -0.0012486726, 0.0040166415, 0.15281391, 0
576, 1816865777, 0.42463866, 0.0029322498, -0.003459616, 0.9053517, -0.0033486772, -0.013537974, 0.14744854, 0
577, 1816882444, 0.424623, 0.0029309744, -0.003465337, 0.9053589, -0.0048982417, -0.013223612, 0.14910507, 0
578, 1816899111, 0.42464584, 0.0029348924, -0.0034752423, 0.90534824, -0.0016220493, -0.011095822, 0.15061855, 0
579, 1816915778, 0.42466614, 0.0029257482, -0.003472032, 0.9053387, 0.00641881, 0.0032591524, 0.15733147, 0
580, 1816932445, 0.4246599, 0.0029227226, -0.0034724982, 0.9053416, -0.0016204969, 0.010298907, 0.16027355, 0
581, 1816949112, 0.42457718, 0.0029280393, -0.0034640948, 0.9053805, -0.016070964, 0.0041015553, 0.16284657, 0
582, 1816965779, 0.42453042, 0.0029371548, -0.0034656264, 0.90540236, 0.0121987155, -0.005246733, 0.15142727, 0
583, 1816982446, 0.42452505, 0.002947247, -0.003460598, 0.9054049, 6.1414024E-4, 0.012783315, 0.15043545, 0
584, 1816999113, 0.42449793, 0.002944693, -0.0034488824, 0.9054177, -0.016004516, -0.0091337245, 0.14737892, 0
585, 1817015780, 0.424497, 0.00294906, -0.0034426602, 0.9054181, 0.0022614587, -0.012383337, 0.15610123, 0
586, 1817032447, 0.42449558, 0.0029519848, -0.0034480817, 0.90541875, 0.0026951097, 0.0039590755, 0.15115166, 0
587, 1817049114, 0.4244874, 0.0029510523, -0.0034552445, 0.9054226, 7.5887016E-5, -0.01132037, 0.16371822, 0
588, 1817065781, 0.42432618, 0.0029563014, -0.0034707165, 0.90549797, 0.0033123484, -0.019605044, 0.1457777, 0
589, 1817082448, 0.42435083, 0.0029605553, -0.003475431, 0.9054864, -0.0013924849, 0.0025251054, 0.12844372, 0
590, 1817099115, 0.42432714, 0.0029610526, -0.0034706858, 0.9054975, 0.0022786465, 9.454825E-4, 0.15622902, 0
591, 1817115782, 0.42435524, 0.002964553, -0.003473996, 0.9054843, 0.009256232, 0.002143855, 0.15611744, 0
592, 1817132449, 0.42436248, 0.0029659725, -0.0034707272, 0.9054809, 0.004088506, 0.009642567, 0.15063477, 0
593, 1817149116, 0.4243465, 0.0029689746, -0.0034611728, 0.9054885, -8.4252335E-4, -0.009436147, 0.15449142, 0
594, 1817165783, 0.42423597, 0.0029662752, -0.0034653028, 0.90554017, -0.002404969, 0.0026680925, 0.15536499, 0
595, 1817182450, 0.42428038, 0.0029679742, -0.0034593036, 0.90551937, -0.0023384502, -0.0028761316, 0.14087296, 0
596, 1817199117, 0.42430258, 0.0029777156, -0.003462496, 0.9055089, -8.594108E-4, 0.005606103, 0.14443302, 0
597, 1817215784, 0.42417645, 0.0029791244, -0.0034660494, 0.9055681, -0.002994073, 8.004409E-4, 0.15791798, 0
598, 1817232451, 0.42412338, 0.002964508, -0.0034683591, 0.9055929, 0.0068944125, -0.0027522566, 0.15198803, 0
599, 1817249118, 0.4241528, 0.0029634638, -0.0034688944, 0.90557915, 0.0035092616, 0.008178708, 0.14982128, 0
600, 1817265785, 0.42427257, 0.002928123, -0.0034116823, 0.9055234, 0.0059174425, 0.012107107, 0.15387726, 0
601, 1817282452, 0.42429748, 0.0029239825, -0.003411374, 0.90551174, 3.4820873E-4, 0.0064874995, 0.15359402, 0
602, 1817299119, 0.42437378, 0.0029216749, -0.0034176314, 0.905476, -7.935531E-4, -0.005902085, 0.15325546, 0
603, 1817315786, 0.4243757, 0.0029135963, -0.0034205606, 0.9054751, -0.005740973, -0.005466419, 0.15513325, 0
604, 1817332453, 0.42435458, 0.002911305, -0.0034161308, 0.905485, 0.004294441, -0.017269868, 0.173769, 0
605, 1817349120, 0.4243849, 0.0029225892, -0.0034206163, 0.90547067, 0.0022509492, -0.0012283905, 0.16179466, 0
606, 1817365787, 0.42437416, 0.0029161954, -0.0034202049, 0.90547585, 0.013064795, 0.0107195815, 0.1592617, 0
607, 1817382454, 0.42435458, 0.0029157707, -0.003413246, 0.905485, -0.011013886, 0.011401934, 0.14481544, 0
608, 1817399121, 0.42438373, 0.0029155095, -0.0034148039, 0.9054713, -9.911123E-4, -0.0033761265, 0.15605068, 0
609, 1817415788, 0.42438745, 0.0029201428, -0.0034119352, 0.9054696, -0.0014757923, -0.0047561573, 0.15438557, 0
610, 1817432455, 0.42437768, 0.0029301867, -0.0034349551, 0.90547407, -0.009115102, 0.009708919, 0.14829159, 0
611, 1817449122, 0.42435113, 0.0029221019, -0.0034236931, 0.9054866, -0.0044206018, -0.0018717202, 0.15201092, 0
612, 1817465789, 0.42430565, 0.00292174, -0.0034176353, 0.90550786, -0.008911829, 0.0067079607, 0.14040661, 0
613, 1817482456, 0.42432764, 0.0029166066, -0.0034258899, 0.9054975, 7.554371E-4, -0.0025408708, 0.15514278, 0
614, 1817499123, 0.4243176, 0.0029198208, -0.0034210444, 0.9055023, -8.72282E-4, 0.010843649, 0.14813328, 0
615, 1817515790, 0.42430976, 0.0029139493, -0.0034133375, 0.905506, 0.001818064, 0.0027622115, 0.1700325, 0
616, 1817532457, 0.42430034, 0.0029184257, -0.003410568, 0.9055104, 0.008817551, 0.001896036, 0.15238571, 0
617, 1817549124, 0.424295, 0.0029237336, -0.0034113075, 0.9055129, 0.0040256307, 0.0076298914, 0.16492271, 0
618, 1817565791, 0.4244001, 0.002933587, -0.0034129992, 0.9054637, 0.005999074, -0.0031137476, 0.15786839, 0
619, 1817582458, 0.42442802, 0.0029386757, -0.0034128015, 0.9054506, 0.010509579, -0.0030351463, 0.15391922, 0
620, 1817599125, 0.4244529, 0.0029401758, -0.0034144216, 0.9054389, 4.537575E-4, 0.008419393, 0.14906979, 0
621, 1817615792, 0.4244441, 0.0029330242, -0.003419422, 0.905443, -0.011055266, -0.012356181, 0.14202976, 0
622, 1817632459, 0.4244653, 0.0029389893, -0.0034192307, 0.90543306, 0.011922628, -0.0060710367, 0.16489506, 0
623, 1817649126, 0.42453796, 0.0029374314, -0.0034196745, 0.90539896, -0.0011603213, 0.0030208884, 0.15788269, 0
624, 1817665793, 0.4245459, 0.0029352508, -0.0034294378, 0.9053952, -0.006698039, 0.0076680398, 0.1503973, 0
625, 1817682460, 0.42454654, 0.0029328028, -0.0034248568, 0.9053949, -0.0064635775, -0.0022075886, 0.145895, 0
626, 1817699127, 0.42452514, 0.0029299457, -0.0034112534, 0.905405, 0.0041590147, -0.007669808, 0.15232563, 0
627, 1817715794, 0.42455667, 0.0029239068, -0.0034001102, 0.9053902, 0.005751899, -0.017953256, 0.15290642, 0
628, 1817732461, 0.42457324, 0.0029207603, -0.0033904163, 0.9053826, -0.005270252, -0.01600975, 0.14852428, 0
629, 1817749128, 0.4245766, 0.0029195407, -0.0034006326, 0.90538096, 0.003802543, 4.916962E-4, 0.16013622, 0
630, 1817765795, 0.4245512, 0.002916947, -0.003409513, 0.9053928, -0.0049053575, 0.012290629, 0.14331627, 0
631, 1817782462, 0.42453977, 0.002914559, -0.0034154484, 0.9053982, -0.011887476, 0.005595466, 0.146801, 0
632, 1817799129, 0.42452455, 0.0029140795, -0.0034173182, 0.90540534, 0.0011471034, 0.008142513, 0.16672993, 0
633, 1817815796, 0.42453173, 0.0029174776, -0.003413871, 0.90540195, -0.005784605, -0.011293589, 0.16344833, 0
634, 1817832463, 0.42456168, 0.002921871, -0.0034100194, 0.9053879, 0.007183413, -0.0061494596, 0.15476608, 0
635, 1817849130, 0.42448834, 0.0029144716, -0.0034098933, 0.90542233, -0.002071615, 0.0038725445, 0.14399338, 0
636, 1817865797, 0.42453322, 0.0029063986, -0.0033991477, 0.90540135, -0.0011434521, -5.8533065E-4, 0.1433878, 0
637, 1817882464, 0.42450812, 0.0029075444, -0.0034010336, 0.9054131, -0.0016167426, -0.0071343817, 0.1638174, 0
638, 1817899131, 0.4244801, 0.0029027096, -0.0033947944, 0.90542626, -7.340235E-4, 0.003976884, 0.13518238, 0
639, 1817915798, 0.42450863, 0.0028952258, -0.0033948484, 0.9054129, 0.003862256, -0.0058780657, 0.15168953, 0
640, 1817932465, 0.4245442, 0.0028905151, -0.0033911762, 0.9053963, -0.0018009496, -0.0016508134, 0.16225815, 0
641, 1817949132, 0.4244921, 0.0028912406, -0.0033884495, 0.9054207, 0.0021003103, 0.005266365, 0.15694332, 0
642, 1817965799, 0.4244904, 0.002896155, -0.003391879, 0.9054215, 0.01758941, 0.0065656444, 0.15749359, 0
643, 1817982466, 0.42459825, 0.0029016405, -0.0033850772, 0.905371, 0.0029573836, 2.9121467E-4, 0.15601921, 0
644, 1817999133, 0.42457154, 0.002881251, -0.0033892244, 0.9053836, -0.00814779, -0.0023959044, 0.15214157, 0
645, 1818015800, 0.42454126, 0.0028802855, -0.0033892905, 0.9053978, -0.0060614515, -0.0056922683, 0.14634228, 0
646, 1818032467, 0.42439157, 0.0028808664, -0.0033903043, 0.90546787, 0.0020073724, -0.013647994, 0.1439352, 0
647, 1818049134, 0.42444602, 0.0028900313, -0.0033943625, 0.90544236, 0.0026970382, -6.9204325E-5, 0.14021397, 0
648, 1818065801, 0.42444903, 0.0028851088, -0.0033968033, 0.9054409, 1.416688E-4, 0.010925124, 0.14840794, 0
649, 1818082468, 0.4244474, 0.0028767127, -0.0034014643, 0.90544176, 0.0030843802, -0.008306123, 0.14690399, 0
650, 1818099135, 0.42450476, 0.0028845952, -0.00339498, 0.9054149, 0.005824526, 0.0011926703, 0.1494503, 0
651, 1818115802, 0.4245608, 0.002885079, -0.0033869501, 0.9053885, -0.0013769271, 0.0033813922, 0.1545515, 0
652, 1818132469, 0.4244646, 0.0028897827, -0.0033913958, 0.9054336, 0.0073085935, 4.2169823E-4, 0.15211582, 0
653, 1818149136, 0.4243938, 0.0028916802, -0.0033990217, 0.9054668, -1.7803942E-4, -0.0066205063, 0.15224743, 0
654, 1818165803, 0.4245083, 0.0028948504, -0.0033943378, 0.9054131, -0.0030717403, 0.0015489876, 0.14826584, 0
655, 1818182470, 0.42465988, 0.0028884646, -0.0033906053, 0.90534204, -0.0011109484, 6.254608E-4, 0.15398026, 0
656, 1818199137, 0.42479697, 0.0028888872, -0.0034010382, 0.9052777, -0.0075095473, 0.00250285, 0.14616299, 0
657, 1818215804, 0.42481327, 0.002887667, -0.003397812, 0.90527004, -7.22613E-4, 0.00686701, 0.15927601, 0
658, 1818232471, 0.4248247, 0.0028821072, -0.0033911066, 0.9052647, -0.0035654332, -0.016195584, 0.14899254, 0
659, 1818249138, 0.4248091, 0.0028847174, -0.0033982166, 0.905272, 0.008669904, -0.009040045, 0.16232681, 0
660, 1818265805, 0.424694, 0.0028847056, -0.0033977968, 0.905326, -0.0055006696, -0.0068927677, 0.14891243, 0
661, 1818282472, 0.42472094, 0.0028752673, -0.0034025563, 0.9053134, -0.0035978463, 0.006915237, 0.16144753, 0
662, 1818299139, 0.4246969, 0.0028674013, -0.0033939194, 0.90532476, -0.008929362, 0.024330499, 0.15545845, 0
663, 1818315806, 0.42470008, 0.002859223, -0.0033887385, 0.9053233, -0.017108865, 0.011549644, 0.16186047, 0
664, 1818332473, 0.42463976, 0.0028677993, -0.003382881, 0.9053516, 0.0076573035, -0.01022226, 0.16624546, 0
665, 1818349140, 0.4246331, 0.0028752496, -0.00338105, 0.9053547, 0.0019813245, -0.009798973, 0.16158009, 0
666, 1818365807, 0.42470154, 0.0028751248, -0.0033731125, 0.90532255, 0.011038584, 2.7306736E-4, 0.14838219, 0
667, 1818382474, 0.4246619, 0.002874709, -0.0033663667, 0.90534115, -0.013370354, -0.00751171, 0.14801598, 0
668, 1818399141, 0.42468, 0.0028898695, -0.0033738648, 0.90533257, 0.0011196969, 0.003857392, 0.15664959, 0
669, 1818415808, 0.4247483, 0.0028823456, -0.0033783647, 0.90530074, -0.010471064, 0.009760432, 0.14531422, 0
670, 1818432475, 0.4247244, 0.0028877293, -0.0033844577, 0.90531194, -0.0058042333, -0.0022272002, 0.16095924, 0
671, 1818449142, 0.42466903, 0.002876573, -0.003381909, 0.9053378, -0.010312236, 0.008385394, 0.15952969, 0
672, 1818465809, 0.42466146, 0.0028740468, -0.0033870202, 0.9053414, 0.014136481, -0.005141485, 0.15197277, 0
673, 1818482476, 0.42464802, 0.0028794408, -0.0033794492, 0.9053477, -0.010084308, -0.007409279, 0.16098976, 0
674, 1818499143, 0.42466643, 0.0028796073, -0.0033842572, 0.90533906, -0.010454308, 0.001527849, 0.15670586, 0
675, 1818515810, 0.42464653, 0.0028800534, -0.003386598, 0.90534836, 0.0101173185, 0.0032517563, 0.15204144, 0
676, 1818532477, 0.4246444, 0.002877905, -0.0033815438, 0.9053493, -0.001916366, -0.0059494013, 0.16856384, 0
677, 1818549144, 0.4246605, 0.0028770242, -0.003377022, 0.90534174, -0.010923672, -8.095971E-4, 0.15909386, 0
678, 1818565811, 0.4246295, 0.0028723492, -0.0033744606, 0.9053563, -0.003798375, 0.0042358534, 0.15909195, 0
679, 1818582478, 0.42460617, 0.0028713297, -0.00337195, 0.9053674, -0.0077501605, 0.0090994, 0.14260292, 0
680, 1818599145, 0.42460713, 0.0028753907, -0.003365423, 0.9053669, 0.0023854028, -0.006951046, 0.14000607, 0
681, 1818615812, 0.42455706, 0.0028801803, -0.00336237, 0.9053904, -0.001235412, 3.0357076E-4, 0.1594696, 0
682, 1818632479, 0.4245321, 0.0028845621, -0.0033595606, 0.90540206, -0.0040486474, -0.0090168575, 0.14665508, 0
683, 1818649146, 0.42455962, 0.0028894413, -0.0033627793, 0.90538913, -0.0011037637, -0.0051507563, 0.15790462, 0
684, 1818665813, 0.42452356, 0.0028824373, -0.0033657362, 0.90540606, 0.0022122194, -0.002606775, 0.15725708, 0
685, 1818682480, 0.424532, 0.002890448, -0.0033742038, 0.90540206, 0.010339414, -0.0015723709, 0.1460638, 0
686, 1818699147, 0.42458537, 0.0028917307, -0.0033696136, 0.90537703, 0.005948105, 0.012444758, 0.14687634, 0
687, 1818715814, 0.4246792, 0.002881737, -0.0033748976, 0.90533304, 4.6749742E-4, 0.0014720939, 0.16919994, 0
688, 1818732481, 0.4246935, 0.0028753593, -0.0033883036, 0.90532625, 0.0032431406, -0.0038119112, 0.15427208, 0
689, 1818749148, 0.42474315, 0.0028739404, -0.003395817, 0.9053031, -0.016488073, -0.0034031384, 0.1625948, 0
690, 1818765815, 0.42473936, 0.0028630588, -0.0034046008, 0.9053047, 0.010958548, 0.006547684, 0.1500578, 0
691, 1818782482, 0.42478073, 0.002862377, -0.0034082797, 0.9052854, 0.0013186968, -0.010620035, 0.13189125, 0
692, 1818799149, 0.4248383, 0.002859977, -0.0034112462, 0.9052584, -0.0067137484, -0.00115109, 0.14457607, 0
693, 1818815816, 0.4248443, 0.002857674, -0.0034062862, 0.9052555, 0.002316787, -0.009367211, 0.15172863, 0
694, 1818832483, 0.42493173, 0.002849291, -0.0034087037, 0.9052145, 0.008626144, 0.005708377, 0.14493847, 0
695, 1818849150, 0.42498714, 0.0028512063, -0.003403949, 0.9051885, 0.0050902534, -0.0021953208, 0.14449978, 0
696, 1818865817, 0.42498025, 0.0028525686, -0.0034103822, 0.9051917, 5.097763E-4, -0.0042315437, 0.14175034, 0
697, 1818882484, 0.4250022, 0.0028505626, -0.0034204877, 0.90518135, 0.002315361, -0.015319355, 0.15059662, 0
698, 1818899151, 0.42496383, 0.002848552, -0.0034147983, 0.90519935, 0.004214567, -0.010697507, 0.1487236, 0
699, 1818915818, 0.42497334, 0.0028391373, -0.0034169836, 0.90519506, -0.0059777694, -0.0018854802, 0.13616753, 0
700, 1818932485, 0.4249677, 0.0028382875, -0.003406181, 0.9051978, -0.0076909, 0.005761192, 0.15760517, 0
701, 1818949152, 0.42499527, 0.0028330616, -0.003402019, 0.9051847, -0.0038583819, -5.1962835E-4, 0.14682674, 0
702, 1818965819, 0.42495975, 0.0028288427, -0.003414072, 0.90520144, 0.0046416027, 0.0058265384, 0.16413403, 0
703, 1818982486, 0.4249611, 0.0028404484, -0.0034188663, 0.9052007, 0.008059426, 0.0020668104, 0.15411377, 0
704, 1818999153, 0.42499653, 0.0028390514, -0.0034294, 0.90518403, -0.003752263, -0.014838805, 0.15691376, 0
705, 1819015820, 0.42498955, 0.0028464328, -0.003431683, 0.90518725, -0.0030826768, -0.0122418385, 0.14245987, 0
706, 1819032487, 0.42497805, 0.002836375, -0.0034373365, 0.9051926, -0.016844932, 5.9531278E-5, 0.1636734, 0
707, 1819049154, 0.4250602, 0.0028422016, -0.0034357004, 0.90515405, 0.0035490068, 0.01472246, 0.16195965, 0
708, 1819065821, 0.42502743, 0.0028469888, -0.0034347638, 0.9051694, 0.009474274, 0.0071931365, 0.15398788, 0
709, 1819082488, 0.42500526, 0.0028381483, -0.003431091, 0.90517986, -0.0064764074, 0.011233828, 0.13950062, 0
710, 1819099155, 0.42496726, 0.0028367052, -0.0034258112, 0.90519786, 0.003139244, -0.005523939, 0.15289593, 0
711, 1819115822, 0.4249504, 0.0028341468, -0.0034265586, 0.9052058, -0.003191242, -0.010147751, 0.14362717, 0
712, 1819132489, 0.42492604, 0.002841436, -0.0034291986, 0.90521723, -0.0105441185, -0.013874555, 0.14021015, 0
713, 1819149156, 0.42487913, 0.0028330735, -0.0034284533, 0.9052393, 0.0016202271, -0.0075933984, 0.14645863, 0
714, 1819165823, 0.4249184, 0.0028323699, -0.0034349111, 0.9052207, -0.006975106, 0.0014464003, 0.15115166, 0
715, 1819182490, 0.4249193, 0.00282882, -0.0034446653, 0.90522027, -0.0032851568, 0.0013138179, 0.14781952, 0
716, 1819199157, 0.42490947, 0.0028310756, -0.0034334073, 0.9052249, -0.010774692, 0.0018817643, 0.14895535, 0
717, 1819215824, 0.42496195, 0.002812206, -0.0034249376, 0.90520036, -0.0016946412, -0.0032242564, 0.15699005, 0
718, 1819232491, 0.4249735, 0.002806284, -0.0034202244, 0.90519494, -0.009135724, -0.009516896, 0.14413643, 0
719, 1819249158, 0.42495865, 0.002812595, -0.0034254002, 0.90520203, -1.7840524E-4, -0.011129982, 0.15745258, 0
720, 1819265825, 0.42506367, 0.0029178492, -0.003395594, 0.9051524, -0.0074265776, -0.01056818, 0.1682539, 0
721, 1819282492, 0.4250755, 0.002917582, -0.0033856444, 0.9051469, -0.0052835084, -0.0055508246, 0.14914131, 0
722, 1819299159, 0.42505714, 0.0029200187, -0.0033881401, 0.90515554, -0.01597343, 0.018039675, 0.160038, 0
723, 1819315826, 0.4250473, 0.0029152574, -0.0033875273, 0.9051601, 0.0038694083, -0.0012534808, 0.15068436, 0
724, 1819332493, 0.4250318, 0.0029165766, -0.0033849375, 0.9051674, 0.00467892, -0.0027766866, 0.1637907, 0
725, 1819349160, 0.42500672, 0.0029144972, -0.0033989479, 0.90517914, 0.0049219187, 0.0052060382, 0.1618805, 0
726, 1819365827, 0.4249872, 0.002899932, -0.003409685, 0.90518826, -0.0030426374, -0.016616743, 0.16361809, 0
727, 1819382494, 0.42499188, 0.00289451, -0.0034074807, 0.9051861, 0.0027235656, -0.014205145, 0.14670181, 0
728, 1819399161, 0.42500645, 0.002894031, -0.00340264, 0.90517926, -0.009504556, -0.019689295, 0.15613365, 0
729, 1819415828, 0.42505303, 0.0028908115, -0.0034026045, 0.9051574, -0.0056050685, 0.005087497, 0.14809132, 0
730, 1819432495, 0.42509958, 0.0028907184, -0.003400142, 0.90513563, 0.0072790654, -0.005503822, 0.14383316, 0
731, 1819449162, 0.42515668, 0.0028939957, -0.0034041319, 0.90510875, 0.015854008, -0.0033357458, 0.1482687, 0
732, 1819465829, 0.4251592, 0.0028845032, -0.003408422, 0.9051076, -0.0018494143, -0.00870657, 0.1529131, 0
733, 1819482496, 0.42514727, 0.002883428, -0.003411615, 0.9051132, 0.021469183, -0.0010659324, 0.1456852, 0
734, 1819499163, 0.4251342, 0.0028842685, -0.0034047135, 0.9051193, 0.0018574599, 0.0013921915, 0.1494875, 0
735, 1819515830, 0.42513525, 0.0028751236, -0.0034216412, 0.9051188, -0.0021823752, 0.009639637, 0.15353584, 0
736, 1819532497, 0.42517465, 0.0028832557, -0.0034082604, 0.90510035, -0.014398401, -0.008032828, 0.15849781, 0
737, 1819549164, 0.4252491, 0.0028875577, -0.0034168547, 0.9050654, -0.0067044003, -0.008389213, 0.16951561, 0
738, 1819565831, 0.42524165, 0.0028914316, -0.0034378888, 0.9050688, -0.001464153, -0.00891489, 0.16048908, 0
739, 1819582498, 0.4252944, 0.0028895312, -0.003432392, 0.9050439, -0.0036791821, -0.007432524, 0.1585226, 0
740, 1819599165, 0.42530653, 0.0028941024, -0.0034373244, 0.9050383, 0.016236942, 0.0073953182, 0.1499548, 0
741, 1819615832, 0.42531407, 0.0028929466, -0.0034367626, 0.9050348, 0.014869466, 0.002721727, 0.15517616, 0
742, 1819632499, 0.42535487, 0.002892681, -0.0034298967, 0.9050156, -0.001493772, -5.1668775E-4, 0.14649773, 0
743, 1819649166, 0.42530134, 0.002891328, -0.0034295751, 0.90504074, -0.0062446874, -0.0027138253, 0.14350319, 0
744, 1819665833, 0.42528915, 0.0029025886, -0.0034238696, 0.9050465, 0.0052468358, -0.024626577, 0.14826679, 0
745, 1819682500, 0.42529622, 0.0029063046, -0.0034196044, 0.90504307, -0.015211653, -0.0028777006, 0.15184784, 0
746, 1819699167, 0.42540705, 0.0029068948, -0.0034295646, 0.904991, -0.005802415, -0.0011684524, 0.16450691, 0
747, 1819715834, 0.4254243, 0.002910955, -0.0034272177, 0.90498286, -0.00775346, 0.0011562937, 0.16566086, 0
748, 1819732501, 0.4254724, 0.0029072075, -0.0034259774, 0.9049602, -0.013173079, 0.004721996, 0.1505661, 0
749, 1819749168, 0.42547673, 0.002911876, -0.0034302596, 0.9049582, 2.9858973E-4, 0.008257739, 0.15624619, 0
750, 1819765835, 0.42540348, 0.0029065649, -0.0034368695, 0.90499264, 0.0039872457, 0.0040730555, 0.14162159, 0
751, 1819782502, 0.42540744, 0.0029042054, -0.003437338, 0.9049908, -0.011103289, -0.016064057, 0.153018, 0
752, 1819799169, 0.4254074, 0.0029065702, -0.0034251926, 0.90499085, -0.002943155, -0.0029208849, 0.144701, 0
753, 1819815836, 0.42545775, 0.0029075071, -0.003428614, 0.9049672, -4.1595413E-4, -0.016877456, 0.15383053, 0
754, 1819832503, 0.4254627, 0.0029105516, -0.003426407, 0.90496486, 0.0031354353, 0.0013042531, 0.14519787, 0
755, 1819849170, 0.42545414, 0.0029086978, -0.003430174, 0.9049689, 0.004205073, -0.0026337423, 0.15159416, 0
756, 1819865837, 0.42544377, 0.002905147, -0.0034250538, 0.9049738, 0.012914007, 0.0030831683, 0.14603806, 0
757, 1819882504, 0.4254458, 0.0029054147, -0.0034284967, 0.90497285, 0.0019173509, -9.382934E-4, 0.144763, 0
758, 1819899171, 0.42544508, 0.0028997317, -0.0034343495, 0.9049732, 0.006186778, -0.0032036453, 0.15043831, 0
759, 1819915838, 0.42545417, 0.0028924758, -0.0034391868, 0.90496886, -0.007836393, -0.0066008167, 0.14811516, 0
760, 1819932505, 0.42550954, 0.0028986894, -0.0034402688, 0.9049428, -0.015434921, -0.004792169, 0.14090252, 0
761, 1819949172, 0.42551425, 0.0029060654, -0.0034311875, 0.9049406, -0.0051255547, -0.0027653668, 0.15617275, 0
762, 1819965839, 0.4255022, 0.0029037208, -0.003427503, 0.90494627, -0.0039010975, 0.0048075593, 0.16661644, 0
763, 1819982506, 0.4254538, 0.002896563, -0.0034160079, 0.90496904, 0.0057207085, 4.2288128E-4, 0.14834118, 0
764, 1819999173, 0.4254535, 0.0028992954, -0.0034069517, 0.9049692, 0.0018055141, -0.0035126614, 0.14828396, 0
765, 1820015840, 0.4254462, 0.002907053, -0.003407638, 0.9049727, 0.003273205, -0.011440582, 0.1533432, 0
766, 1820032507, 0.4253976, 0.002909914, -0.0033924214, 0.9049956, -0.0055251475, -0.0069523794, 0.14336205, 0
767, 1820049174, 0.4254459, 0.002902206, -0.0033925758, 0.904973, -0.005596538, -1.6748454E-4, 0.15331745, 0
768, 1820065841, 0.42538658, 0.0028996782, -0.0033985847, 0.90500087, -0.002506317, -0.0031817164, 0.16172886, 0
769, 1820082508, 0.42540312, 0.0029088857, -0.0033952815, 0.90499294, 8.051522E-4, -0.0035308367, 0.15127373, 0
770, 1820099175, 0.4253818, 0.0029006412, -0.003394626, 0.90500295, 0.0021638148, 0.010380582, 0.15852356, 0
771, 1820115842, 0.42539936, 0.002891828, -0.0034094413, 0.9049947, 0.005356054, 0.005188821, 0.15793037, 0
772, 1820132509, 0.42535716, 0.0028917398, -0.0034215006, 0.90501446, 0.007308795, -0.009923582, 0.15011692, 0
773, 1820149176, 0.42538512, 0.0028870318, -0.0034242703, 0.90500134, 0.009415544, -0.0096112285, 0.1426506, 0
774, 1820165843, 0.42535114, 0.0028842015, -0.003420811, 0.9050173, 0.008375811, -0.007214153, 0.1436472, 0
775, 1820182510, 0.425341, 0.0028799865, -0.003421428, 0.9050221, -0.007986747, -0.0019656706, 0.1494503, 0
776, 1820199177, 0.42534372, 0.0028843044, -0.003416902, 0.9050208, -4.0174444E-4, -0.0063396143, 0.15252972, 0
777, 1820215844, 0.42531905, 0.0028739101, -0.003414065, 0.9050326, 0.016782714, 0.0022669593, 0.14672565, 0
778, 1820232511, 0.4253245, 0.002875181, -0.003408591, 0.90502995, -0.008474088, -0.011935698, 0.15980625, 0
779, 1820249178, 0.42533666, 0.0028696358, -0.0034062515, 0.9050243, 0.009445999, -0.00576824, 0.14865208, 0
780, 1820265845, 0.425346, 0.0028722296, -0.0034162013, 0.90501994, 0.00851868, 0.005356293, 0.14995193, 0
781, 1820282512, 0.42533714, 0.0028755676, -0.0034190235, 0.9050241, 0.008291741, 0.00245081, 0.1447792, 0
782, 1820299179, 0.42537004, 0.00288399, -0.0034173513, 0.9050085, 0.0051793, -7.0850464E-4, 0.1612339, 0
783, 1820315846, 0.42538258, 0.0028779202, -0.0034239567, 0.9050026, -0.0048093316, 0.0096595995, 0.15928459, 0
784, 1820332513, 0.4254363, 0.0028758596, -0.0034243606, 0.9049774, 3.5502325E-4, -0.01062298, 0.15185547, 0
785, 1820349180, 0.42548624, 0.0028756368, -0.0034168242, 0.90495384, 0.009173428, -0.015044549, 0.14883518, 0
786, 1820365847, 0.42549697, 0.0028706214, -0.0034294466, 0.9049489, -0.004721524, -0.0031002364, 0.14439964, 0
787, 1820382514, 0.4255108, 0.00286977, -0.0034432784, 0.90494233, -0.0055716857, 9.5376995E-4, 0.14995003, 0
788, 1820399181, 0.42550725, 0.0028702614, -0.0034514354, 0.904944, 0.0066381525, 0.0050901617, 0.14840317, 0
789, 1820415848, 0.42550737, 0.0028686116, -0.0034594196, 0.90494394, -0.0073456382, 0.0030903032, 0.15485, 0
790, 1820432515, 0.42548454, 0.0028690728, -0.0034698313, 0.9049545, 0.0125002675, -0.005366908, 0.15546703, 0
791, 1820449182, 0.42554003, 0.0028717371, -0.0034712043, 0.9049284, 0.0019396943, -0.014967077, 0.15588856, 0
792, 1820465849, 0.4254339, 0.0028726666, -0.0034781785, 0.90497833, -0.0031014483, 0.002526024, 0.14862442, 0
793, 1820482516, 0.42543873, 0.0028747814, -0.0034728935, 0.90497607, -0.0048279394, 0.003701942, 0.15074444, 0
794, 1820499183, 0.42544392, 0.0028622404, -0.0034837306, 0.90497357, 0.0019924731, 0.0053290874, 0.14601707, 0
795, 1820515850, 0.42542902, 0.0028630714, -0.0034906527, 0.90498054, -0.0027564038, 0.01485753, 0.14278412, 0
796, 1820532517, 0.42545754, 0.0028710337, -0.0035012632, 0.90496707, -0.011642921, 5.505508E-4, 0.14885807, 0
797, 1820549184, 0.42546028, 0.0028611098, -0.0034956555, 0.9049658, -0.008499948, -0.00554597, 0.15793514, 0
798, 1820565851, 0.42546853, 0.0028608178, -0.0034867504, 0.90496194, 0.014765285, -0.012715893, 0.14318657, 0
799, 1820582518, 0.42550138, 0.0028680349, -0.0034896107, 0.9049465, -0.0067855427, -0.011310017, 0.15536022, 0
800, 1820599185, 0.42554477, 0.0028754105, -0.0034884987, 0.9049261, 0.012135599, -0.007944849, 0.15386677, 0
801, 1820615852, 0.42552483, 0.0028762468, -0.0034997163, 0.9049355, -0.01365433, 0.0065975855, 0.14709663, 0
802, 1820632519, 0.42553887, 0.0028665918, -0.003496099, 0.90492886, -0.0021824748, 0.008936012, 0.15575123, 0
803, 1820649186, 0.42554954, 0.002874606, -0.0034855576, 0.90492386, 3.6428944E-4, -0.003844787, 0.15434647, 0
804, 1820665853, 0.42557508, 0.0028731867, -0.003492577, 0.9049119, 1.326532E-4, -0.0056079775, 0.16436005, 0
805, 1820682520, 0.42553487, 0.0028795584, -0.0034845432, 0.90493083, 0.003701647, -0.012236468, 0.16486359, 0
806, 1820699187, 0.4255129, 0.0028780608, -0.0034850559, 0.90494114, 0.012544429, -0.016646704, 0.14176178, 0
807, 1820715854, 0.4254735, 0.002891019, -0.0034776798, 0.9049597, -0.0010046, 7.688627E-4, 0.15826035, 0
808, 1820732521, 0.42553532, 0.0028969757, -0.0034776104, 0.9049306, -0.010906895, -0.0047424533, 0.15880871, 0
809, 1820749188, 0.4255533, 0.0028929582, -0.0034825308, 0.9049221, 0.0014447633, 0.016461832, 0.16093636, 0
810, 1820765855, 0.4255701, 0.0028975683, -0.0034670471, 0.90491426, -0.003966981, 0.00818912, 0.14820576, 0
811, 1820782522, 0.42556515, 0.0028985485, -0.0034729997, 0.9049166, 0.009323208, -0.015535027, 0.16860104, 0
812, 1820799189, 0.42554668, 0.0028941853, -0.0034745529, 0.9049253, -1.934784E-5, -0.0019133652, 0.15736008, 0
813, 1820815856, 0.4256008, 0.0028983327, -0.003476883, 0.90489984, -7.476264E-4, -0.013014873, 0.14802456, 0
814, 1820832523, 0.4255993, 0.0028918863, -0.0034808342, 0.90490043, -0.0033585913, 0.0015459718, 0.14907646, 0
815, 1820849190, 0.4256082, 0.002899935, -0.0034758856, 0.9048962, 0.0033503056, -0.017247915, 0.159235, 0
816, 1820865857, 0.4256308, 0.0028968216, -0.0034846554, 0.90488553, 0.0050125383, 0.008759455, 0.15350437, 0
817, 1820882524, 0.42564386, 0.0028944404, -0.0034835094, 0.9048794, 7.206931E-4, 0.008770235, 0.15130997, 0
818, 1820899191, 0.42559987, 0.0029022763, -0.0034676988, 0.90490013, -1.0636423E-4, -0.0048434664, 0.14184666, 0
819, 1820915858, 0.4256112, 0.0029025052, -0.0034682585, 0.90489477, -0.0051894016, -0.012311762, 0.16221237, 0
820, 1820932525, 0.4256027, 0.0029017336, -0.0034761182, 0.90489894, -0.0051584817, 0.0059568794, 0.15835285, 0
821, 1820949192, 0.42556745, 0.002898187, -0.0034840335, 0.90491533, -0.0094574755, 0.007922462, 0.14937782, 0
822, 1820965859, 0.425561, 0.002899242, -0.0034805872, 0.9049184, -0.012679916, -0.011219676, 0.13866043, 0
823, 1820982526, 0.4255681, 0.0029037076, -0.0034683442, 0.9049152, 0.007155308, -0.001244253, 0.14864159, 0
824, 1820999193, 0.42555624, 0.0028920453, -0.0034828743, 0.90492064, -0.016855055, -0.0108313225, 0.15651512, 0
825, 1821015860, 0.42554852, 0.0028987194, -0.0034871935, 0.9049242, -0.0010119339, -0.0030565397, 0.14932919, 0
826, 1821032527, 0.42551145, 0.0028964735, -0.0034812428, 0.9049417, 0.019878898, 0.0027136009, 0.1413908, 0
827, 1821049194, 0.42552888, 0.0028872304, -0.0034899088, 0.90493345, 0.0042157113, -0.008914369, 0.16457367, 0
828, 1821065861, 0.4255009, 0.0028748438, -0.0034982606, 0.90494674, 0.003960433, -0.0016115921, 0.15749454, 0
829, 1821082528, 0.42547804, 0.002870003, -0.0034943137, 0.90495753, -0.0044264067, -0.0035240606, 0.13991451, 0
830, 1821099195, 0.42548552, 0.0028714258, -0.0034893514, 0.904954, 0.012855618, 0.0039303172, 0.14975357, 0
831, 1821115862, 0.42555773, 0.0028599603, -0.0034963216, 0.90492004, -0.005001991, -0.0051832385, 0.16505814, 0
832, 1821132529, 0.42550206, 0.002860924, -0.003489621, 0.9049462, -0.0023953605, -0.0017835234, 0.17034626, 0
833, 1821149196, 0.4255548, 0.0028532862, -0.0034938282, 0.9049214, 0.007988245, 0.0075327987, 0.14548683, 0
834, 1821165863, 0.42552376, 0.002855572, -0.0034919302, 0.904936, 0.0067751263, 0.0035479714, 0.15464687, 0
835, 1821182530, 0.42551944, 0.0028611128, -0.0034902343, 0.90493804, 0.0042760507, 8.534528E-4, 0.15548038, 0
836, 1821199197, 0.4255205, 0.002863072, -0.0034867409, 0.9049375, 0.009012208, 0.008412482, 0.14761353, 0
837, 1821215864, 0.42550635, 0.0028673576, -0.0034862391, 0.9049441, -0.0058739623, 3.9094948E-4, 0.1557827, 0
838, 1821232531, 0.4254885, 0.0028586816, -0.0034967368, 0.9049526, -0.0072940816, -0.015349804, 0.16191292, 0
839, 1821249198, 0.4254941, 0.00286085, -0.0034969773, 0.90494996, -0.0032187002, -0.014831559, 0.14541721, 0
840, 1821265865, 0.42546684, 0.002893401, -0.0034445282, 0.90496296, -0.0031993461, 0.003432581, 0.15423012, 0
841, 1821282532, 0.4254393, 0.0028885393, -0.0034491161, 0.9049759, -0.0052419063, -3.2119773E-4, 0.14341259, 0
842, 1821299199, 0.42544958, 0.002887212, -0.0034542957, 0.90497106, -0.0014461803, -0.013200344, 0.1443615, 0
843, 1821315866, 0.42544144, 0.0028937089, -0.0034485261, 0.9049747, 0.007138129, 0.0054463237, 0.15960312, 0
844, 1821332533, 0.42542136, 0.002895943, -0.0034422658, 0.9049842, -0.0010936715, 0.0011388063, 0.16083717, 0
845, 1821349200, 0.42547145, 0.0028940355, -0.0034392923, 0.90496063, 0.013615179, -0.0134168845, 0.16516209, 0
846, 1821365867, 0.4254854, 0.0028981688, -0.0034446917, 0.9049541, -0.010097937, -0.0034812798, 0.13839817, 0
847, 1821382534, 0.42549682, 0.0028957566, -0.003443523, 0.9049487, -0.008802936, -0.01262541, 0.1442337, 0
848, 1821399201, 0.42549852, 0.0028990835, -0.0034354073, 0.90494794, 0.0077729076, -0.0067155263, 0.14587784, 0
849, 1821415868, 0.42552817, 0.0029013872, -0.0034211148, 0.90493405, 0.0019063691, 2.957024E-4, 0.15211773, 0
850, 1821432535, 0.425564, 0.0029058428, -0.0034144318, 0.9049172, 0.0027866976, 0.009280649, 0.16388702, 0
851, 1821449202, 0.42557502, 0.002911807, -0.003416266, 0.9049121, -0.004347003, 0.0054592, 0.14672661, 0
852, 1821465869, 0.42559013, 0.0029131055, -0.003421601, 0.904905, 0.0039848736, -0.0012561943, 0.15175724, 0
853, 1821482536, 0.42556483, 0.0029078824, -0.0034145885, 0.9049168, 4.6589703E-4, -0.005468239, 0.14659977, 0
854, 1821499203, 0.4255678, 0.0028993534, -0.0034059605, 0.9049155, 0.007165221, 0.0021931964, 0.15445518, 0
855, 1821515870, 0.4255506, 0.0028984845, -0.003409647, 0.9049236, -0.0070201247, -0.007678665, 0.1573925, 0
856, 1821532537, 0.4255899, 0.002899552, -0.0034160344, 0.90490514, -0.00175935, -0.0055363476, 0.14940548, 0
857, 1821549204, 0.42559338, 0.0029059176, -0.003412664, 0.9049035, 0.002444163, -0.0010095312, 0.1492405, 0
858, 1821565871, 0.42559212, 0.002909483, -0.003413131, 0.90490407, -4.7829765E-4, 0.010513246, 0.15190601, 0
859, 1821582538, 0.42561007, 0.0029120566, -0.003412326, 0.9048956, 0.0054891664, 0.010687815, 0.14679146, 0
860, 1821599205, 0.42562124, 0.0029146178, -0.003416673, 0.9048903, 5.651062E-4, -0.007290275, 0.1515255, 0
861, 1821615872, 0.4256111, 0.002907369, -0.003411894, 0.90489507, -0.0019081354, -0.0036759062, 0.15508652, 0
862, 1821632539, 0.42559186, 0.0029161945, -0.0034073421, 0.9049041, -0.015263439, -0.0037216898, 0.14776325, 0
863, 1821649206, 0.42558944, 0.0029179538, -0.0034146532, 0.90490526, -3.2763943E-4, -0.0019511755, 0.17076778, 0
864, 1821665873, 0.4256112, 0.0029185882, -0.0034159874, 0.904895, -0.0067936997, -0.011980179, 0.15847015, 0
865, 1821682540, 0.4255699, 0.002912256, -0.0034111796, 0.90491444, -0.011519177, -0.003741592, 0.14586735, 0
866, 1821699207, 0.4255167, 0.0029059711, -0.0034196298, 0.9049394, 0.004471892, -0.006460066, 0.15849209, 0
867, 1821715874, 0.4255147, 0.0029112475, -0.003428154, 0.90494037, 0.0041612866, 0.017937412, 0.15324402, 0
868, 1821732541, 0.42553943, 0.0029113162, -0.0034368155, 0.90492874, -0.0074313027, -4.301891E-4, 0.16282845, 0
869, 1821749208, 0.4255312, 0.0029095137, -0.0034362166, 0.9049326, 0.0075653093, -0.006807535, 0.14446163, 0
870, 1821765875, 0.42565712, 0.0029051334, -0.0034386402, 0.90487343, -5.2515068E-5, 0.0042610597, 0.161973, 0
871, 1821782542, 0.4256335, 0.0028975548, -0.0034426334, 0.9048846, -0.00760658, 0.006113288, 0.14713097, 0
872, 1821799209, 0.42565125, 0.0029033925, -0.0034340958, 0.90487623, -0.0029707064, 0.009168345, 0.14343357, 0
873, 1821815876, 0.42564318, 0.0028988866, -0.0034310445, 0.9048799, -0.0045463583, 0.0041899057, 0.14083004, 0
874, 1821832543, 0.4256517, 0.00289026, -0.0034257404, 0.904876, 3.1975974E-4, 0.007908634, 0.15642262, 0
875, 1821849210, 0.4257228, 0.0028950602, -0.0034188628, 0.9048425, 0.009402529, -0.011201693, 0.16768837, 0
876, 1821865877, 0.42576265, 0.002900231, -0.0034047095, 0.90482396, 0.0035950933, -0.0069903503, 0.15535927, 0
877, 1821882544, 0.42579982, 0.002898309, -0.003407358, 0.9048063, 0.008888288, -0.016104944, 0.15370846, 0
878, 1821899211, 0.42581305, 0.002894226, -0.00340371, 0.9048001, 0.003029788, -0.0042615724, 0.15992069, 0
879, 1821915878, 0.42583758, 0.0028811067, -0.0034140802, 0.9047885, -0.002191315, -0.00640163, 0.15060997, 0
880, 1821932545, 0.42584732, 0.0028835402, -0.0034131473, 0.9047841, 0.0019178896, 0.0022949742, 0.1601572, 0
881, 1821949212, 0.42584452, 0.0028862732, -0.0034124907, 0.9047854, 0.009638839, 9.871502E-4, 0.15642357, 0
882, 1821965879, 0.42588663, 0.002885622, -0.0034149892, 0.9047656, 0.006628246, -0.0067221057, 0.15835857, 0
883, 1821982546, 0.42588347, 0.002883264, -0.003417718, 0.9047671, -0.0024800228, -0.0069491016, 0.15082264, 0
884, 1821999213, 0.42587388, 0.002886048, -0.0034182495, 0.9047715, -0.0058660572, -0.0015955332, 0.14926147, 0
885, 1822015880, 0.4258596, 0.002878989, -0.0034221124, 0.9047783, 0.0020522724, -0.018035797, 0.13666439, 0
886, 1822032547, 0.42589778, 0.0028742047, -0.003420265, 0.90476036, -0.0029824635, 1.7602257E-4, 0.15697575, 0
887, 1822049214, 0.42589346, 0.0028735797, -0.0034182377, 0.9047624, -6.3019566E-4, 0.0040899743, 0.16703224, 0
888, 1822065881, 0.42594254, 0.0028775267, -0.0034253104, 0.90473926, 0.008934128, 0.008921325, 0.1514864, 0
889, 1822082548, 0.42594382, 0.0028714556, -0.0034248685, 0.90473866, -0.0070755426, -0.0012696269, 0.1618967, 0
890, 1822099215, 0.42594287, 0.0028724638, -0.0034221897, 0.9047391, -0.004539055, -0.00918486, 0.1603241, 0
891, 1822115882, 0.42593196, 0.002866894, -0.0034179299, 0.9047442, -0.0073324167, -0.0103369625, 0.14524555, 0
892, 1822132549, 0.4258896, 0.002860973, -0.003423493, 0.9047641, 0.0033076983, -9.6037757E-4, 0.17232227, 0
893, 1822149216, 0.4260452, 0.0028553996, -0.0034270685, 0.90469086, -9.6113276E-4, -0.0148670655, 0.15297127, 0
894, 1822165883, 0.4260085, 0.0028531132, -0.003425545, 0.90470815, -0.006462119, -0.01397835, 0.16726017, 0
895, 1822182550, 0.42602965, 0.002859293, -0.0034264533, 0.9046982, 0.0042255498, 0.0076879733, 0.15630722, 0
896, 1822199217, 0.4260485, 0.0028497253, -0.0034388683, 0.9046893, 0.0015886925, -0.0075558233, 0.13933563, 0
897, 1822215884, 0.4260638, 0.002850591, -0.003438873, 0.9046821, 0.006265518, 0.0019182904, 0.16640091, 0
898, 1822232551, 0.42607257, 0.002849442, -0.0034430553, 0.904678, 5.0168706E-4, -0.009003654, 0.15324402, 0
899, 1822249218, 0.4260331, 0.00285323, -0.0034299856, 0.90469664, -0.0030516677, 0.00945888, 0.15156841, 0
900, 1822265885, 0.42599535, 0.0028508862, -0.0034388823, 0.9047144, 0.007987189, -0.0019793278, 0.16756248, 0
901, 1822282552, 0.42599097, 0.0028515938, -0.0034345791, 0.90471643, 0.00371039, -0.003076546, 0.16259575, 0
902, 1822299219, 0.42599228, 0.002850533, -0.003449359, 0.9047158, 0.0043142787, -0.0050864015, 0.14865303, 0
903, 1822315886, 0.42600477, 0.00284365, -0.0034544473, 0.9047099, 0.0080903685, 0.011075516, 0.15151215, 0
904, 1822332553, 0.4260147, 0.0028360263, -0.0034483029, 0.9047052, -0.016637014, -0.0018128534, 0.14791298, 0
905, 1822349220, 0.42601013, 0.0028342127, -0.0034437561, 0.9047074, -2.2339946E-4, 0.0076723695, 0.1550026, 0
906, 1822365887, 0.4259563, 0.0028387273, -0.0034409736, 0.90473276, -4.5462622E-4, -0.006913832, 0.14061642, 0
907, 1822382554, 0.42595327, 0.002835806, -0.0034390627, 0.9047342, 0.0054652425, -0.016657526, 0.14282894, 0
908, 1822399221, 0.42594415, 0.0028403092, -0.0034430248, 0.9047384, 3.80213E-4, -0.0041332175, 0.14601612, 0
909, 1822415888, 0.4259355, 0.002835845, -0.0034345337, 0.9047425, 0.0073736184, 0.0025789388, 0.14443302, 0
910, 1822432555, 0.42593452, 0.002837794, -0.0034422057, 0.9047431, 0.019921182, 0.0049632546, 0.15486526, 0
911, 1822449222, 0.42593175, 0.002840267, -0.0034446868, 0.9047444, -0.0028272704, 0.0036364913, 0.16237068, 0
912, 1822465889, 0.42592412, 0.0028387124, -0.0034545271, 0.9047479, 0.002328194, 0.011840683, 0.14691639, 0
913, 1822482556, 0.42596683, 0.002829699, -0.0034479056, 0.9047279, 0.0045513613, 0.018411014, 0.15724564, 0
914, 1822499223, 0.4259733, 0.00282991, -0.0034482686, 0.90472484, 0.0028273298, -0.01165719, 0.14700127, 0
915, 1822515890, 0.42599562, 0.0028326926, -0.0034493206, 0.90471435, -0.008058761, -0.017460061, 0.1637106, 0
916, 1822532557, 0.4260044, 0.0028300658, -0.0034313044, 0.9047103, -0.01809776, -0.010418941, 0.13505268, 0
917, 1822549224, 0.4260231, 0.0028202506, -0.0034436616, 0.9047014, -0.010392689, 0.005999602, 0.1477747, 0
918, 1822565891, 0.42600238, 0.002810502, -0.0034485357, 0.9047111, -0.005121652, 0.002430747, 0.14997864, 0
919, 1822582558, 0.42595777, 0.0028001994, -0.003458209, 0.9047321, -0.0053074337, 0.012002598, 0.15967655, 0
920, 1822599225, 0.42595455, 0.0027969745, -0.0034644573, 0.9047336, 0.00590721, 0.0078123473, 0.1523056, 0
921, 1822615892, 0.42590815, 0.0027957452, -0.003464398, 0.9047555, -0.01251403, -0.009976589, 0.14967442, 0
922, 1822632559, 0.42589697, 0.002802831, -0.0034688697, 0.9047607, 0.011450724, -0.010583131, 0.1641779, 0
923, 1822649226, 0.42590111, 0.002804418, -0.0034705054, 0.90475875, -0.003684358, -0.013282444, 0.15555859, 0
924, 1822665893, 0.42592487, 0.002803236, -0.0034667146, 0.90474755, -0.008261057, 0.004716318, 0.14088249, 0
925, 1822682560, 0.4259201, 0.002805086, -0.0034673098, 0.9047498, -0.0023407848, 0.0023966003, 0.15395927, 0
926, 1822699227, 0.42590818, 0.002802755, -0.0034691722, 0.9047554, -0.013448013, -0.0023108786, 0.14004993, 0
927, 1822715894, 0.42590123, 0.0027972895, -0.0034762828, 0.90475863, 0.0031545467, 0.002835068, 0.15730572, 0
928, 1822732561, 0.4259027, 0.002793032, -0.0034799066, 0.904758, 0.01117068, 0.0063653956, 0.16141987, 0
929, 1822749228, 0.42594048, 0.002784132, -0.003485811, 0.90474015, -0.0021709062, -1.6007456E-4, 0.15289402, 0
930, 1822765895, 0.4259277, 0.0027954949, -0.003480177, 0.90474623, -0.014409634, -0.011075612, 0.15035439, 0
931, 1822782562, 0.42588466, 0.0027946294, -0.0034822738, 0.9047665, -0.008609874, 0.0042314837, 0.14930344, 0
932, 1822799229, 0.42589507, 0.0027939535, -0.0034873358, 0.9047616, -0.010230679, -0.00746146, 0.14394093, 0
933, 1822815896, 0.42590994, 0.0027801974, -0.0034783622, 0.9047547, -0.012398858, 6.733546E-4, 0.16845798, 0
934, 1822832563, 0.42595756, 0.002780173, -0.0034816728, 0.9047323, 0.0025385676, 0.0043986207, 0.13047695, 0
935, 1822849230, 0.42595124, 0.0027807644, -0.0034801627, 0.90473527, 0.009038031, -0.006423023, 0.15724087, 0
936, 1822865897, 0.42597398, 0.0027803483, -0.003484217, 0.9047244, 0.004003828, -7.742969E-4, 0.1640997, 0
937, 1822882564, 0.42599228, 0.0027853025, -0.0034804626, 0.9047158, 0.0062312093, -0.0055984636, 0.14520836, 0
938, 1822899231, 0.42600948, 0.0027768195, -0.0034828347, 0.90470773, -0.0072387466, -0.007478869, 0.14018345, 0
939, 1822915898, 0.4259942, 0.0027820184, -0.0034861632, 0.9047149, -0.0052778777, 0.00652708, 0.16090202, 0
940, 1822932565, 0.4260188, 0.0027814102, -0.0034820403, 0.9047033, -1.2672137E-5, 0.001957035, 0.15769482, 0
941, 1822949232, 0.42607304, 0.002768067, -0.0034740283, 0.90467787, 0.010356773, -0.0028236497, 0.15583229, 0
942, 1822965899, 0.42607722, 0.0027638283, -0.003466488, 0.90467596, 0.0050576213, -0.009125149, 0.15913486, 0
943, 1822982566, 0.42609385, 0.0027739124, -0.0034671542, 0.9046681, 0.0037020992, 4.0022613E-4, 0.15259361, 0
944, 1822999233, 0.4261237, 0.0027652802, -0.0034646036, 0.904654, 0.008017515, 0.013936845, 0.15643406, 0
945, 1823015900, 0.42612928, 0.0027612082, -0.003465757, 0.9046514, 0.004413543, 0.0063486244, 0.15476418, 0
946, 1823032567, 0.42615563, 0.002758055, -0.0034793497, 0.90463895, 0.0018715281, -0.003968809, 0.15850544, 0
947, 1823049234, 0.4260708, 0.0027581356, -0.003483518, 0.90467894, -0.01605623, -0.010301714, 0.15780449, 0
948, 1823065901, 0.42607117, 0.0027586587, -0.0034798698, 0.90467876, -0.009095795, -0.010889085, 0.1480236, 0
949, 1823082568, 0.42606857, 0.0027617621, -0.0034738102, 0.90467995, 0.014403416, -8.410452E-4, 0.15566921, 0
950, 1823099235, 0.42607036, 0.0027666015, -0.00346804, 0.9046791, -0.008085309, 0.004407329, 0.15757847, 0
951, 1823115902, 0.42606384, 0.002775208, -0.0034556387, 0.9046822, -0.007801704, -9.3196693E-4, 0.15428162, 0
952, 1823132569, 0.4261287, 0.0027721263, -0.0034571427, 0.90465176, -0.008010869, -0.012756838, 0.15402889, 0
953, 1823149236, 0.4260643, 0.0027622317, -0.0034627265, 0.90468204, 8.8923756E-4, -0.011440069, 0.16386127, 0
954, 1823165903, 0.42602807, 0.0027671312, -0.0034614557, 0.90469915, 0.010443278, -0.0010261759, 0.13794136, 0
955, 1823182570, 0.4260268, 0.0027703675, -0.0034535567, 0.90469974, 0.0059068347, -0.011698164, 0.1505804, 0
956, 1823199237, 0.4259742, 0.0027739424, -0.0034559101, 0.90472454, 0.0016198315, -0.007911614, 0.1566658, 0
957, 1823215904, 0.42598468, 0.002778997, -0.0034470714, 0.90471965, -0.014703371, -0.011617769, 0.17195797, 0
958, 1823232571, 0.42599776, 0.0027907155, -0.0034373796, 0.9047135, -0.014710027, -0.017747413, 0.1573515, 0
959, 1823249238, 0.426001, 0.0027928075, -0.0034272873, 0.9047119, -0.023152184, -0.027684964, 0.16093159, 0
960, 1823265905, 0.42593566, 0.0029064517, -0.0034646646, 0.9047422, -0.0038015607, -0.006336045, 0.14027214, 0
961, 1823282572, 0.42594662, 0.0028932241, -0.0034692176, 0.90473694, 0.013845, 0.003714808, 0.15267754, 0
962, 1823299239, 0.42595327, 0.002900029, -0.0034466272, 0.904734, 0.017092805, 0.0345187, 0.16121197, 0
963, 1823315906, 0.4259526, 0.002905478, -0.0034441876, 0.9047343, 0.006147879, 0.020451583, 0.14639664, 0
964, 1823332573, 0.42592415, 0.002901184, -0.0034442127, 0.9047477, 0.011296297, -0.0010033933, 0.14050388, 0
965, 1823349240, 0.42596668, 0.002890289, -0.0034413706, 0.90472776, -0.0046683406, -0.011481477, 0.14744186, 0
966, 1823365907, 0.42597815, 0.0028921925, -0.0034476111, 0.90472233, -0.018753136, -0.0057249414, 0.15772152, 0
967, 1823382574, 0.42598766, 0.0028865405, -0.0034424353, 0.90471786, -0.029391918, -0.01275975, 0.14403915, 0
968, 1823399241, 0.42595467, 0.0028910807, -0.0034412988, 0.90473336, -0.0100821685, -0.022112766, 0.15006256, 0
969, 1823415908, 0.42596358, 0.0028807523, -0.003437287, 0.90472925, 0.017308448, -0.0016625269, 0.13667679, 0
970, 1823432575, 0.4259417, 0.0028833232, -0.0034325763, 0.90473956, 0.013143849, -0.003955688, 0.1625166, 0
971, 1823449242, 0.42594603, 0.0028824743, -0.0034353686, 0.90473753, 0.0071397196, 0.002338376, 0.14728737, 0
972, 1823465909, 0.42599055, 0.0028753995, -0.0034364949, 0.9047166, -1.272749E-4, -0.0035126817, 0.15737534, 0
973, 1823482576, 0.42596474, 0.0028796152, -0.003439383, 0.9047287, -8.2864374E-4, -0.009615281, 0.15729046, 0
974, 1823499243, 0.4259563, 0.0028850515, -0.0034409508, 0.90473264, -0.02238689, -5.2064285E-4, 0.17632866, 0
975, 1823515910, 0.42596614, 0.0028855195, -0.003441691, 0.904728, -0.009144507, -0.011047294, 0.1573925, 0
976, 1823532577, 0.425968, 0.0028828748, -0.0034439566, 0.90472716, -0.018064175, 6.636274E-4, 0.16391563, 0
977, 1823549244, 0.4259812, 0.0028800506, -0.0034465129, 0.90472096, 0.011228232, -0.0074664433, 0.14611626, 0
978, 1823565911, 0.42598224, 0.0028720885, -0.0034475222, 0.90472037, 0.0083868615, 0.0056491173, 0.14571571, 0
979, 1823582578, 0.42596233, 0.0028853319, -0.0034361267, 0.9047297, 0.013893615, 0.013838396, 0.15357685, 0
980, 1823599245, 0.4259473, 0.0028814198, -0.0034369812, 0.9047368, 0.0026692816, -0.0064851684, 0.16235542, 0
981, 1823615912, 0.42594588, 0.0028744417, -0.0034417824, 0.90473753, -0.0033131815, 5.8401492E-5, 0.16011524, 0
982, 1823632579, 0.42593157, 0.0028697783, -0.0034465173, 0.90474427, 0.012600603, -0.010658753, 0.15996265, 0
983, 1823649246, 0.42590958, 0.0028693, -0.003445365, 0.90475464, -0.006613694, -0.015428293, 0.15106678, 0
984, 1823665913, 0.42587352, 0.0028669331, -0.003450818, 0.9047716, -0.014400795, -0.0015699061, 0.16045952, 0
985, 1823682580, 0.42587146, 0.0028773847, -0.0034500456, 0.9047726, -0.009059963, -0.003730722, 0.16512775, 0
986, 1823699247, 0.42573264, 0.0028744305, -0.003450009, 0.90483797, -0.0027641053, -0.0014433855, 0.1466465, 0
987, 1823715914, 0.42578137, 0.0028725832, -0.0034454397, 0.9048149, -6.077335E-4, 0.0024173416, 0.14758396, 0
988, 1823732581, 0.42578098, 0.0028713585, -0.0034459701, 0.9048151, 0.007374824, -0.004821169, 0.13919163, 0
989, 1823749248, 0.4257568, 0.0028718316, -0.0034363354, 0.90482664, 0.011976069, -0.0035360998, 0.16084862, 0
990, 1823765915, 0.4257952, 0.0028723825, -0.0034370965, 0.9048086, 0.004568554, -0.019567572, 0.15660572, 0
991, 1823782582, 0.42580378, 0.0028718289, -0.0034341773, 0.9048044, -0.001135211, -0.031433214, 0.14606762, 0
992, 1823799249, 0.42579472, 0.0028761972, -0.0034232691, 0.90480876, 0.004979846, -0.007947402, 0.1541214, 0
993, 1823815916, 0.42583057, 0.0028844108, -0.0034200267, 0.90479183, 0.0065273377, -2.1850137E-4, 0.14550495, 0
994, 1823832583, 0.42583826, 0.002872275, -0.0034193508, 0.9047883, -0.013948898, 0.006606788, 0.14911366, 0
995, 1823849250, 0.42584556, 0.0028740785, -0.0034176023, 0.90478486, -0.016191257, 0.005625907, 0.15638542, 0
996, 1823865917, 0.42583504, 0.0028719595, -0.0034202214, 0.9047898, 0.0068259737, 0.01072451, 0.14498997, 0
997, 1823882584, 0.42584306, 0.00286828, -0.0034233988, 0.90478605, 9.355877E-4, -0.0011267192, 0.13989353, 0
998, 1823899251, 0.42583403, 0.0028610649, -0.0034249937, 0.9047903, -0.0024768834, -4.0011527E-4, 0.1439848, 0
999, 1823915918, 0.42580545, 0.0028598818, -0.0034286955, 0.9048037, -0.01701122, -0.0066610677, 0.1480093, 0
1000, 1823932585, 0.425802, 0.0028589515, -0.0034356306, 0.90480536, -0.0028634348, -0.0067567574, 0.15979385, 0
1001, 1823949252, 0.4258048, 0.0028577538, -0.00343638, 0.904804, 6.6707615E-4, -0.019921437, 0.14387989, 0
1002, 1823965919, 0.42581344, 0.002858083, -0.0034353223, 0.90479994, 0.0018733983, -0.011516266, 0.1462183, 0
1003, 1823982586, 0.4257989, 0.0028642023, -0.0034280797, 0.90480685, 0.0016692873, 0.010057047, 0.15340424, 0
1004, 1823999253, 0.4258025, 0.0028690572, -0.0034307388, 0.9048051, 0.009677698, -0.0026302927, 0.14512634, 0
1005, 1824015920, 0.4258238, 0.0028692253, -0.0034176921, 0.90479517, -0.00395667, -0.005660591, 0.15845394, 0
1006, 1824032587, 0.42584175, 0.0028716433, -0.0034174179, 0.9047867, 0.005017816, -0.0038732341, 0.14924526, 0
1007, 1824049254, 0.42581052, 0.0028649962, -0.0034117382, 0.9048014, -0.020401515, -0.010325833, 0.14630795, 0
1008, 1824065921, 0.42581937, 0.0028660148, -0.0034176162, 0.90479726, -0.013300053, -0.011551877, 0.15519428, 0
1009, 1824082588, 0.42578685, 0.002877276, -0.0034052627, 0.9048126, -0.015007641, -0.004782855, 0.14896488, 0
1010, 1824099255, 0.42576706, 0.0028829298, -0.0034033312, 0.9048219, 0.0023454227, -0.003441621, 0.14928246, 0
1011, 1824115922, 0.42576718, 0.0028847326, -0.003396886, 0.9048218, 0.009877286, -0.008823249, 0.14540768, 0
1012, 1824132589, 0.42579314, 0.0028885612, -0.0033966254, 0.9048096, 0.0028102763, 0.0068668933, 0.15385151, 0
1013, 1824149256, 0.4258011, 0.002888444, -0.0033940596, 0.90480584, 0.011996229, 0.00851333, 0.15533829, 0
1014, 1824165923, 0.42580158, 0.0028868623, -0.003398304, 0.9048056, -0.014540063, -0.003032808, 0.15573692, 0
1015, 1824182590, 0.42582655, 0.002888302, -0.0033911364, 0.90479386, -0.013726792, -0.0055499705, 0.16074657, 0
1016, 1824199257, 0.42579785, 0.0028875454, -0.0033939497, 0.9048073, -0.011546333, 0.0018645101, 0.14899445, 0
1017, 1824215924, 0.42578262, 0.0028837847, -0.0033932764, 0.9048145, -0.0023537162, -0.0055538807, 0.1450491, 0
1018, 1824232591, 0.42580414, 0.0028768098, -0.0033937101, 0.90480435, 0.0012040329, 0.011208892, 0.16235828, 0
1019, 1824249258, 0.4258311, 0.0028884616, -0.0033952254, 0.9047917, 0.0030708157, -0.016496489, 0.15357304, 0
1020, 1824265925, 0.42579436, 0.0028828988, -0.0034018564, 0.90480906, -0.0011743057, 0.018116413, 0.15668964, 0
1021, 1824282592, 0.4257941, 0.002887159, -0.0033899755, 0.9048091, 0.0038167404, -0.011088566, 0.16225433, 0
1022, 1824299259, 0.4258042, 0.002889932, -0.00339903, 0.90480435, 0.011565866, -0.0049687685, 0.14738083, 0
1023, 1824315926, 0.4257915, 0.0028974614, -0.0034083948, 0.90481025, 0.007756931, -0.0037786008, 0.14040089, 0
1024, 1824332593, 0.42582312, 0.002900928, -0.0034057198, 0.90479535, -9.001443E-4, -0.0022165098, 0.15029907, 0
1025, 1824349260, 0.425836, 0.0029017278, -0.0034106914, 0.9047893, -0.009802152, -0.0033264332, 0.1565628, 0
1026, 1824365927, 0.42581654, 0.0029079586, -0.0034033966, 0.9047985, -0.0136013245, -0.002706281, 0.15668583, 0
1027, 1824382594, 0.42583013, 0.0028931755, -0.0034113827, 0.90479213, -1.2960608E-4, 0.01040322, 0.1607666, 0
1028, 1824399261, 0.42583376, 0.002891497, -0.0034041898, 0.9047904, 0.015064442, -0.006881366, 0.1618576, 0
1029, 1824415928, 0.4258048, 0.0028832653, -0.0033947902, 0.9048041, 0.0024429678, -0.012032401, 0.15042782, 0
1030, 1824432595, 0.42568704, 0.0028718428, -0.0033952806, 0.90485954, 0.002536076, -0.0027600392, 0.15127468, 0
1031, 1824449262, 0.425668, 0.0028647908, -0.0034037374, 0.9048685, -0.009237072, -0.007400052, 0.15982342, 0
1032, 1824465929, 0.42564964, 0.0028634463, -0.0034039496, 0.9048771, -0.0036546849, -0.0010420148, 0.14537811, 0
1033, 1824482596, 0.4256484, 0.002870052, -0.0033961113, 0.9048778, -0.0036580034, -0.009178426, 0.15087223, 0
1034, 1824499263, 0.42567933, 0.0028637287, -0.003393308, 0.90486324, -0.008855146, -0.005360597, 0.14316273, 0
1035, 1824515930, 0.42566842, 0.0028638078, -0.0034044788, 0.9048683, -0.0017689016, 0.005758634, 0.15479946, 0
1036, 1824532597, 0.4256776, 0.002867539, -0.003397596, 0.90486395, -0.010117173, -0.002250256, 0.16542721, 0
1037, 1824549264, 0.4257009, 0.0028742428, -0.003389002, 0.90485305, 0.012623275, -0.0020643387, 0.15902042, 0
1038, 1824565931, 0.4257152, 0.0028766617, -0.003389323, 0.9048463, -0.003785501, 0.0036267133, 0.14582062, 0
1039, 1824582598, 0.42572555, 0.002874762, -0.003393615, 0.9048415, 0.0012265361, 0.0029781887, 0.16265202, 0
1040, 1824599265, 0.42571577, 0.0028867861, -0.003385164, 0.9048461, 1.9390011E-4, 0.004189755, 0.15254879, 0
1041, 1824615932, 0.42571813, 0.0028906805, -0.0033799247, 0.90484494, 0.0044806995, -0.0055961977, 0.15733337, 0
1042, 1824632599, 0.4257061, 0.0029003234, -0.003379987, 0.9048506, 0.0010830958, -0.0010530673, 0.16986084, 0
1043, 1824649266, 0.42565656, 0.0029005955, -0.0033790157, 0.9048739, 0.0015718977, -8.6969504E-4, 0.14959908, 0
1044, 1824665933, 0.4256606, 0.0028974202, -0.003387565, 0.904872, 0.0015855599, -0.0032353054, 0.15553474, 0
1045, 1824682600, 0.4256329, 0.0028992326, -0.003389456, 0.90488505, 0.007141602, 0.0035228296, 0.15626621, 0
1046, 1824699267, 0.42563307, 0.0028944097, -0.003398434, 0.90488493, 0.007630617, -0.0060900105, 0.15511703, 0
1047, 1824715934, 0.4256434, 0.0028992647, -0.003392603, 0.90488005, 0.0053131175, 0.0010446148, 0.14372158, 0
1048, 1824732601, 0.42563838, 0.0028992945, -0.003400332, 0.90488243, -0.011067937, 0.013765807, 0.1540041, 0
1049, 1824749268, 0.42565897, 0.0029011793, -0.0033875671, 0.9048728, -0.0023477583, -0.0074322736, 0.13096142, 0
1050, 1824765935, 0.42560586, 0.0029047057, -0.003386921, 0.90489775, -0.008904099, -0.0036814783, 0.14732265, 0
1051, 1824782602, 0.4255766, 0.0029031092, -0.003385666, 0.9049115, -7.0918567E-4, -0.011152877, 0.14411926, 0
1052, 1824799269, 0.42560372, 0.0029020237, -0.0033782984, 0.9048987, -5.6632597E-4, 0.007382227, 0.14845276, 0
1053, 1824815936, 0.4256127, 0.0029058864, -0.0033895015, 0.90489453, -0.0066912035, -0.0013517828, 0.15531158, 0
1054, 1824832603, 0.42558178, 0.0029165454, -0.0033800113, 0.9049091, -0.0032743025, 0.0038113873, 0.14566517, 0
1055, 1824849270, 0.42556748, 0.00291388, -0.003383094, 0.9049158, 0.0019079049, 0.003178114, 0.15254784, 0
1056, 1824865937, 0.42556357, 0.002916469, -0.0033757617, 0.9049176, 0.006114648, -0.0018716181, 0.17756939, 0
1057, 1824882604, 0.42557567, 0.0029198073, -0.0033679733, 0.9049119, 4.4550584E-4, 0.009827035, 0.14590073, 0
1058, 1824899271, 0.42558223, 0.0029141244, -0.0033700953, 0.90490884, 0.004624167, 0.004957555, 0.16540909, 0
1059, 1824915938, 0.425581, 0.0029231447, -0.003374287, 0.90490943, 0.008856826, 0.007113276, 0.1496582, 0
1060, 1824932605, 0.42556828, 0.0029313012, -0.003382248, 0.90491533, 0.0027176198, -0.012426325, 0.15356636, 0
1061, 1824949272, 0.42557684, 0.0029307764, -0.0033952598, 0.9049112, 0.0053832834, 0.0020989073, 0.14013863, 0
1062, 1824965939, 0.4255702, 0.00292563, -0.0033957867, 0.9049144, -0.0013095327, 0.0037588559, 0.1557169, 0
1063, 1824982606, 0.42560804, 0.002924818, -0.0033764667, 0.9048966, 0.0033276915, 8.660254E-5, 0.15772152, 0
1064, 1824999273, 0.42562145, 0.002926853, -0.0033765198, 0.90489036, -0.0029398615, -0.0048206113, 0.14933872, 0
1065, 1825015940, 0.42560026, 0.0029341404, -0.0033806784, 0.9049003, 0.0017779033, 0.0014155259, 0.14609528, 0
1066, 1825032607, 0.425588, 0.0029283005, -0.0033860307, 0.9049061, 0.0107144825, 0.0023800514, 0.14416504, 0
1067, 1825049274, 0.42558113, 0.0029274682, -0.0033887734, 0.9049093, 0.011582893, 0.0017772956, 0.16320038, 0
1068, 1825065941, 0.42558268, 0.0029292428, -0.0033794371, 0.9049085, -0.001443939, -0.016756777, 0.15028, 0
1069, 1825082608, 0.4255841, 0.0029268009, -0.0033736187, 0.9049078, 0.007457365, -0.009861337, 0.14782429, 0
1070, 1825099275, 0.42559662, 0.0029279792, -0.0033703549, 0.9049019, -0.010652925, 0.010562286, 0.13811874, 0
1071, 1825115942, 0.4256099, 0.0029248851, -0.0033685777, 0.90489584, 0.011847815, -0.010428783, 0.15915394, 0
1072, 1825132609, 0.42557755, 0.002921162, -0.0033591774, 0.90491104, 0.0070881834, -0.003183687, 0.16552162, 0
1073, 1825149276, 0.4255785, 0.0029199966, -0.0033572514, 0.9049106, 2.5529895E-4, -0.008180599, 0.15507889, 0
1074, 1825165943, 0.42554688, 0.0029284128, -0.003350651, 0.9049256, 0.006237898, 0.0012021278, 0.1553669, 0
1075, 1825182610, 0.42553928, 0.002921091, -0.0033556793, 0.90492904, -0.0044326084, 1.30157E-4, 0.14409828, 0
1076, 1825199277, 0.4255238, 0.0029185624, -0.0033536628, 0.9049363, 0.009680751, -0.0070584677, 0.1538992, 0
1077, 1825215944, 0.425494, 0.002916147, -0.0033546158, 0.9049503, 7.4190326E-4, -0.010854251, 0.13798332, 0
1078, 1825232611, 0.42548826, 0.0029272593, -0.0033621986, 0.9049529, -0.0063672876, 0.008011476, 0.14440823, 0
1079, 1825249278, 0.425489, 0.0029348487, -0.0033548085, 0.9049527, 0.009221256, 0.0069988663, 0.1421051, 0
1080, 1825265945, 0.4255551, 0.002887184, -0.0034505492, 0.9049213, 8.4100507E-4, -0.007838617, 0.14422226, 0
1081, 1825282612, 0.42555082, 0.0028852294, -0.0034558815, 0.9049233, -0.002741864, 0.0015077398, 0.16157913, 0
1082, 1825299279, 0.42554978, 0.002883211, -0.0034506815, 0.9049238, 0.0111491475, 0.00943555, 0.16217327, 0
1083, 1825315946, 0.42552796, 0.0028950816, -0.0034601246, 0.904934, 0.0047279275, 0.0038080174, 0.13685322, 0
1084, 1825332613, 0.42553848, 0.0028994214, -0.0034578464, 0.90492916, -0.0052208067, 0.012762755, 0.14746189, 0
1085, 1825349280, 0.42555842, 0.002899066, -0.0034594405, 0.9049198, 0.003558953, -0.0024672085, 0.14621544, 0
