DeviceTag:,Xsens DOT 1,,,,,,,,,,,,,,,,,
FirmwareVersion:,1.3.0,,,,,,,,,,,,,,,,,
AppVersion:,2020.1.1,,,,,,,,,,,,,,,,,
Measurement Mode:,Sensor fusion Mode - Extended (Quaternion),,,,,,,,,,,,,,,,,
StartTime:,2020-06-16 16:50:55.975 +0200,,,,,,,,,,,,,,,,,
© Xsens Technologies B. V. 2005-2020,,,,,,,,,,,,,,,,,,,
PacketCounter,SampleTimeFine,Quat_W,Quat_X,Quat_Y,Quat_Z,FreeAcc_X,FreeAcc_Y,FreeAcc_Z,Status
1, 1368432929, 0.12316892, -0.7823465, -0.15965344, -0.5892997, 0.004357008, 4.6535398E-4, 0.05317974, 0
2, 1368449596, 0.12314853, -0.7823168, -0.15967028, -0.58933896, 0.011947424, -7.903418E-4, 0.055854797, 0
3, 1368466263, 0.123119414, -0.78226376, -0.1596958, -0.5894086, -6.113219E-4, -0.010851777, 0.07662201, 0
4, 1368482930, 0.123070754, -0.7822442, -0.15974413, -0.58943135, -0.007067787, -0.0049226494, 0.04885006, 0
5, 1368499597, 0.123042144, -0.7822508, -0.15977678, -0.58941966, -0.0014718887, -0.002056878, 0.069766045, 0
6, 1368516264, 0.12302644, -0.78225803, -0.1597866, -0.58941096, -0.0028663022, -0.0026155487, 0.05758667, 0
7, 1368532931, 0.123006806, -0.7822652, -0.1598032, -0.58940107, -0.010084905, -0.006196673, 0.045306206, 0
8, 1368549598, 0.12299286, -0.7822845, -0.15981014, -0.58937657, -0.012913475, -0.010093287, 0.054125786, 0
9, 1368566265, 0.12297903, -0.7823083, -0.1598162, -0.58934605, 0.011362937, -0.0034047728, 0.05693817, 0
10, 1368582932, 0.12295969, -0.7823178, -0.15983392, -0.5893325, 8.270398E-4, -0.0048831995, 0.062177658, 0
11, 1368599599, 0.12295353, -0.78232294, -0.15985453, -0.5893213, -8.80194E-4, 0.0057243905, 0.064769745, 0
12, 1368616266, 0.12294519, -0.7823312, -0.15986721, -0.5893087, -0.0028577808, 0.002977528, 0.047510147, 0
13, 1368632933, 0.12294726, -0.78233653, -0.1598832, -0.58929706, -0.0016312674, 0.0026134253, 0.05980873, 0
14, 1368649600, 0.122950904, -0.7823349, -0.15990768, -0.58929175, -0.011615857, 0.007616986, 0.06407356, 0
15, 1368666267, 0.12302743, -0.78231674, -0.16000202, -0.5892743, -0.012566807, 0.00749316, 0.053453445, 0
16, 1368682934, 0.12309232, -0.7823027, -0.1600961, -0.5892539, 0.013703104, 0.0023473331, 0.06803894, 0
17, 1368699601, 0.12308457, -0.78231466, -0.16008015, -0.58924395, 0.0041838554, 0.0051263813, 0.06378937, 0
18, 1368716268, 0.12289815, -0.7823599, -0.15982814, -0.58929104, 0.0015918034, -0.0022370294, 0.0672884, 0
19, 1368732935, 0.12298227, -0.7823432, -0.15994026, -0.5892654, -0.004547497, 0.0014748502, 0.057302475, 0
20, 1368749602, 0.1229654, -0.7823519, -0.1599113, -0.5892653, 0.004252893, 0.0058968305, 0.060043335, 0
21, 1368766269, 0.1229965, -0.7823424, -0.15995082, -0.5892606, 0.0030787233, 0.006449355, 0.055794716, 0
22, 1368782936, 0.12310334, -0.78230834, -0.16011374, -0.5892391, -0.002340432, 5.8102194E-4, 0.05681324, 0
23, 1368799603, 0.12331978, -0.78224903, -0.16039562, -0.589196, -0.0053401156, 0.003985124, 0.05791378, 0
24, 1368816270, 0.12332281, -0.78225136, -0.16039324, -0.58919287, 0.0015007638, 0.0010915255, 0.065525055, 0
25, 1368832937, 0.123669885, -0.7821593, -0.16084206, -0.58912, 0.008417037, -0.008460189, 0.058875084, 0
26, 1368849604, 0.12363145, -0.7821688, -0.16079283, -0.5891288, 0.014434341, 0.012583444, 0.050209045, 0
27, 1368866271, 0.123789795, -0.782123, -0.160997, -0.5891006, -0.002407961, 0.007174207, 0.058642387, 0
28, 1368882938, 0.12373841, -0.782142, -0.16092177, -0.5891069, 0.0045259697, 0.0076457076, 0.048379898, 0
29, 1368899605, 0.12371635, -0.78214896, -0.16088907, -0.58911127, 0.0094950395, 0.0054890313, 0.07176685, 0
30, 1368916272, 0.12359475, -0.78218126, -0.16071786, -0.5891406, -0.0030212107, -0.0026290712, 0.06407452, 0
31, 1368932939, 0.12372284, -0.78214693, -0.16087449, -0.5891166, -0.0023871602, 0.0029615466, 0.06294727, 0
32, 1368949606, 0.123766415, -0.7821299, -0.16093053, -0.58911484, 0.012092358, 0.0035991173, 0.052535057, 0
33, 1368966273, 0.12375836, -0.7821318, -0.16090688, -0.5891204, 0.01880068, 0.0050978833, 0.060138702, 0
34, 1368982940, 0.123739615, -0.78212976, -0.16089036, -0.5891315, 0.0035908055, -0.0018010674, 0.07455444, 0
35, 1368999607, 0.123723015, -0.7821312, -0.16086887, -0.58913887, 5.6596275E-4, 0.0075970935, 0.06520462, 0
36, 1369016274, 0.12378097, -0.78211623, -0.16094775, -0.589125, 0.005150856, 0.018525088, 0.065564156, 0
37, 1369032941, 0.12378044, -0.78211343, -0.16095798, -0.58912605, 0.010901495, 0.01615384, 0.047987938, 0
38, 1369049608, 0.123727925, -0.7821243, -0.16088288, -0.5891433, 0.0013441789, -0.0027926827, 0.058859825, 0
39, 1369066275, 0.12377968, -0.7821053, -0.16094446, -0.5891407, 0.013341265, 0.01121521, 0.06846905, 0
40, 1369082942, 0.12374806, -0.782114, -0.16090018, -0.5891479, 0.0015330893, -0.011875243, 0.05790806, 0
41, 1369099609, 0.12377238, -0.7821024, -0.16092041, -0.58915275, -0.014561981, -4.665833E-4, 0.062462807, 0
42, 1369116276, 0.12378827, -0.7820991, -0.16092728, -0.58915174, 0.0075460766, -0.006612631, 0.053926468, 0
43, 1369132943, 0.12381018, -0.7820922, -0.16094099, -0.58915263, -0.008803756, 0.0063396096, 0.049440384, 0
44, 1369149610, 0.1238272, -0.7820886, -0.16095887, -0.5891491, 0.0049344115, 4.552959E-4, 0.06294918, 0
45, 1369166277, 0.12378796, -0.78209496, -0.16091108, -0.5891619, 0.013201569, -5.868333E-4, 0.06363201, 0
46, 1369182944, 0.123835616, -0.7820839, -0.16097514, -0.58914894, 0.020740913, 0.0011355575, 0.060726166, 0
47, 1369199611, 0.12387334, -0.782068, -0.16102497, -0.5891486, 0.005417954, -0.0015181, 0.0521307, 0
48, 1369216278, 0.12394851, -0.7820448, -0.16113676, -0.5891329, -0.012795279, -0.0137024615, 0.061665535, 0
49, 1369232945, 0.12397108, -0.78204155, -0.16115238, -0.58912826, 0.0014879118, -7.5983227E-4, 0.05907345, 0
50, 1369249612, 0.124108426, -0.7820038, -0.16134048, -0.5890981, -0.0052837203, 5.0212187E-4, 0.058965683, 0
51, 1369266279, 0.1241344, -0.7820021, -0.1613668, -0.5890876, -0.013125575, -0.003916841, 0.05411148, 0
52, 1369282946, 0.124162465, -0.78199136, -0.16141216, -0.58908355, -0.0017416129, -0.011622786, 0.056293488, 0
53, 1369299613, 0.12413516, -0.78199446, -0.16138446, -0.5890928, -0.009455184, 0.0033673344, 0.06928444, 0
54, 1369316280, 0.12418286, -0.7819817, -0.16145529, -0.5890802, -0.0014263898, 0.021578947, 0.059134483, 0
55, 1369332947, 0.12428511, -0.7819478, -0.16160093, -0.58906376, -0.004092355, -0.0074335937, 0.048973083, 0
56, 1369349614, 0.12435391, -0.7819318, -0.1616783, -0.5890493, -3.95129E-4, 0.011699003, 0.06409168, 0
57, 1369366281, 0.12457302, -0.78187144, -0.16197163, -0.58900255, 0.0017564207, -0.0054332647, 0.050694466, 0
58, 1369382948, 0.12460349, -0.7818645, -0.16201441, -0.58899343, -0.013299817, 0.009453257, 0.06684303, 0
59, 1369399615, 0.12480977, -0.78180134, -0.16229987, -0.5889551, -0.0015321114, -0.005049493, 0.0490427, 0
60, 1369416282, 0.1248948, -0.7817788, -0.16240984, -0.58893645, 0.0032626465, -0.003747977, 0.056411743, 0
61, 1369432949, 0.124999486, -0.7817527, -0.16254961, -0.58891046, 0.022990165, 3.939416E-4, 0.059322357, 0
62, 1369449616, 0.12501803, -0.78174734, -0.16256313, -0.5889099, -0.012588697, -0.0015730842, 0.06360912, 0
63, 1369466283, 0.12496609, -0.78175956, -0.16250192, -0.5889216, -0.0019912769, -0.011913353, 0.05764675, 0
64, 1369482950, 0.12498167, -0.781761, -0.1625167, -0.5889123, 0.0040383064, 9.3271956E-4, 0.070054054, 0
65, 1369499617, 0.12500732, -0.78175044, -0.16255707, -0.58890986, 0.0050771944, -4.1092857E-4, 0.06675625, 0
66, 1369516284, 0.12502095, -0.78174615, -0.16256925, -0.5889091, -0.0012503176, 7.9000654E-4, 0.043988228, 0
67, 1369532951, 0.12492778, -0.78177667, -0.16243605, -0.58892506, -0.014220243, -0.014974809, 0.052972794, 0
68, 1369549618, 0.12504466, -0.78173697, -0.16258462, -0.58891195, 0.007218351, 0.0102713145, 0.054675102, 0
69, 1369566285, 0.1250497, -0.78173184, -0.16258578, -0.5889175, -0.00555385, 0.009991812, 0.0460968, 0
70, 1369582952, 0.12519541, -0.78169906, -0.1627758, -0.5888776, -0.003151826, -0.012966545, 0.072439194, 0
71, 1369599619, 0.12516047, -0.7817011, -0.16272965, -0.58889514, 0.007998845, 0.0073629636, 0.061032295, 0
72, 1369616286, 0.12533006, -0.78165835, -0.16295108, -0.58885455, -0.0025163926, 6.166722E-4, 0.052848816, 0
73, 1369632953, 0.12554376, -0.78160346, -0.16323884, -0.58880216, 0.020503333, 0.0063424036, 0.04973507, 0
74, 1369649620, 0.1257067, -0.7815638, -0.16345437, -0.58876014, 0.0010539753, 0.006594973, 0.061205864, 0
75, 1369666287, 0.12555096, -0.78160423, -0.1632456, -0.5887976, -0.0029429113, 0.0040041227, 0.05868721, 0
76, 1369682954, 0.12563984, -0.78157693, -0.16336365, -0.58878225, 0.007644199, -0.009487343, 0.060723305, 0
77, 1369699621, 0.12569764, -0.781559, -0.16344242, -0.5887719, 0.007534482, 0.003284858, 0.057533264, 0
78, 1369716288, 0.12579045, -0.7815377, -0.1635628, -0.5887468, -0.020423176, 9.968678E-4, 0.05356407, 0
79, 1369732955, 0.12577377, -0.7815459, -0.16354774, -0.5887436, 0.0033202989, -0.003165167, 0.05557251, 0
80, 1369749622, 0.1257723, -0.78154767, -0.16353543, -0.5887451, 0.007767732, -1.6897579E-4, 0.059191704, 0
81, 1369766289, 0.12594497, -0.7815013, -0.1637684, -0.588705, 0.0012285808, 0.005677453, 0.05101776, 0
82, 1369782956, 0.12597647, -0.7814927, -0.16380157, -0.58870035, 0.0218689, -0.0056210156, 0.048779488, 0
83, 1369799623, 0.1260032, -0.7814905, -0.16383848, -0.58868724, -0.0026824488, -0.011884184, 0.053465843, 0
84, 1369816290, 0.12601599, -0.78148377, -0.163855, -0.588689, -0.010879256, 0.0062566865, 0.062277794, 0
85, 1369832957, 0.12606186, -0.781473, -0.16392979, -0.5886727, -2.4348943E-5, 0.008507686, 0.06347847, 0
86, 1369849624, 0.12622748, -0.781432, -0.16413452, -0.5886346, -0.003442365, -0.004420639, 0.061897278, 0
87, 1369866291, 0.12642324, -0.7813772, -0.16439006, -0.5885939, -0.005343692, -0.004174328, 0.06655979, 0
88, 1369882958, 0.12639154, -0.78138524, -0.16434309, -0.5886031, 0.009921279, -0.009087701, 0.06541252, 0
89, 1369899625, 0.12644751, -0.7813681, -0.16441232, -0.58859456, 0.008337145, 0.007360505, 0.05575466, 0
90, 1369916292, 0.12645674, -0.78136927, -0.16442825, -0.58858657, 0.0033379984, -0.0059220875, 0.05529785, 0
91, 1369932959, 0.12647054, -0.78136426, -0.16445072, -0.58858407, 0.0021359178, -6.405881E-4, 0.051555634, 0
92, 1369949626, 0.12645863, -0.78136927, -0.16443636, -0.588584, -0.0117873605, -0.013602886, 0.056837082, 0
93, 1369966293, 0.1265082, -0.78135604, -0.16449027, -0.5885758, 0.0032791027, -0.007514729, 0.04820347, 0
94, 1369982960, 0.12652746, -0.78135777, -0.16450185, -0.5885661, 0.0019606836, -0.015078184, 0.06945038, 0
95, 1369999627, 0.12655823, -0.78135186, -0.16452868, -0.5885598, 0.0034821641, -0.0017064096, 0.04862404, 0
96, 1370016294, 0.12658796, -0.781345, -0.16457155, -0.5885505, -0.00852002, -0.002736469, 0.06106472, 0
97, 1370032961, 0.12652087, -0.7813669, -0.16447589, -0.58856267, 0.0018211976, 0.010072388, 0.054135323, 0
98, 1370049628, 0.12648931, -0.781378, -0.16443421, -0.5885665, 0.020049937, 0.0037302077, 0.066046715, 0
99, 1370066295, 0.12653558, -0.7813647, -0.16448653, -0.58855957, 7.508778E-4, -0.005939186, 0.048801422, 0
100, 1370082962, 0.12663846, -0.7813348, -0.16462764, -0.5885376, 0.00673777, 0.003025248, 0.07110977, 0
101, 1370099629, 0.12660415, -0.78133875, -0.16457333, -0.58855486, -0.0018593903, -0.0075012064, 0.05893421, 0
102, 1370116296, 0.12663747, -0.7813226, -0.16463126, -0.58855283, -1.8702446E-4, 0.0028937105, 0.058633804, 0
103, 1370132963, 0.1266818, -0.7813112, -0.16468474, -0.5885435, -0.005647418, -0.00790353, 0.048505783, 0
104, 1370149630, 0.12666509, -0.78131527, -0.1646525, -0.5885506, 0.008458122, 0.006458742, 0.061023712, 0
105, 1370166297, 0.1266712, -0.78131366, -0.1646606, -0.5885494, 0.001538719, 4.0131752E-4, 0.052147865, 0
106, 1370182964, 0.12667122, -0.7813171, -0.16466117, -0.58854455, 0.0036885506, 0.004369455, 0.06209755, 0
107, 1370199631, 0.12663779, -0.781329, -0.16461153, -0.58855, 0.008161687, -0.010279361, 0.0569458, 0
108, 1370216298, 0.12661128, -0.7813403, -0.16455944, -0.5885551, 0.006788801, 5.8895665E-5, 0.05221176, 0
109, 1370232965, 0.12661153, -0.78134376, -0.16456215, -0.5885497, 0.008472496, -0.0075394274, 0.06016445, 0
110, 1370249632, 0.12662417, -0.7813399, -0.16457923, -0.58854735, 0.003721379, -0.006352797, 0.052384377, 0
111, 1370266299, 0.12665452, -0.7813281, -0.16460937, -0.58854806, 0.0030464677, -8.097874E-4, 0.06849766, 0
112, 1370282966, 0.12667158, -0.7813207, -0.16462515, -0.5885497, -3.715903E-6, -0.0030479345, 0.05577278, 0
113, 1370299633, 0.12671767, -0.78130746, -0.16468078, -0.58854187, 0.0010829901, -0.018977145, 0.056171417, 0
114, 1370316300, 0.12671626, -0.78130853, -0.1646772, -0.5885419, 0.007466506, 0.0053852093, 0.057536125, 0
115, 1370332967, 0.12671804, -0.7813035, -0.1646863, -0.5885456, 0.00260299, -0.0034862433, 0.049028397, 0
116, 1370349634, 0.12677556, -0.7812883, -0.16477244, -0.58852935, -0.007611636, -0.0038991836, 0.059459686, 0
117, 1370366301, 0.12678419, -0.7812806, -0.16478516, -0.588534, -0.005957277, -0.014520072, 0.059785843, 0
118, 1370382968, 0.12676327, -0.78128576, -0.16475691, -0.5885396, -0.008106661, -0.011240578, 0.05068302, 0
119, 1370399635, 0.12752445, -0.78104436, -0.16576393, -0.5884129, 0.007016407, 0.0059414213, 0.06079769, 0
120, 1370416302, 0.12713836, -0.78114885, -0.16526228, -0.5884987, 0.0047863764, -0.012328751, 0.06168747, 0
121, 1370432969, 0.12713037, -0.78114784, -0.1652477, -0.5885059, 0.0028617063, 0.010687607, 0.045707703, 0
122, 1370449636, 0.1275451, -0.7810272, -0.16579705, -0.5884217, 3.1180057E-4, -0.008967452, 0.057808876, 0
123, 1370466303, 0.1277241, -0.78097695, -0.16603473, -0.5883826, 0.009302484, 0.008711305, 0.062740326, 0
124, 1370482970, 0.12770697, -0.7809807, -0.16603479, -0.58838123, -0.0022810474, 0.014467547, 0.06324005, 0
125, 1370499637, 0.12771703, -0.7809843, -0.16603474, -0.58837426, 0.011889129, -0.0030895078, 0.055698395, 0
126, 1370516304, 0.12771112, -0.7809847, -0.16603285, -0.58837557, 0.006287587, -0.0053296667, 0.0518713, 0
127, 1370532971, 0.12771334, -0.78097904, -0.16603562, -0.5883819, 0.0052512554, 0.0010879493, 0.045416832, 0
128, 1370549638, 0.12771425, -0.78097916, -0.16603446, -0.5883818, -0.0041212714, -0.014994814, 0.067248344, 0
129, 1370566305, 0.12771739, -0.7809776, -0.16603842, -0.588382, -0.01067597, -0.018892992, 0.058530807, 0
130, 1370582972, 0.127716, -0.78097945, -0.16604576, -0.5883778, 2.45529E-4, 0.010470912, 0.06756592, 0
131, 1370599639, 0.12770867, -0.7809809, -0.16603671, -0.5883802, 0.0034048846, 0.004905998, 0.055211067, 0
132, 1370616306, 0.12770954, -0.78098255, -0.16603938, -0.58837706, 0.0074842474, -0.0031051538, 0.07809353, 0
133, 1370632973, 0.12770887, -0.7809845, -0.16602811, -0.5883777, 0.019304702, 0.011047128, 0.057803154, 0
134, 1370649640, 0.12770537, -0.7809826, -0.16603884, -0.5883779, -0.005742537, 0.0064338204, 0.062285423, 0
135, 1370666307, 0.12770465, -0.7809873, -0.16604038, -0.5883715, 0.015024611, 0.002569058, 0.051638603, 0
136, 1370682974, 0.12770073, -0.7809859, -0.16604163, -0.58837384, 0.008705159, -0.00659542, 0.057641983, 0
137, 1370699641, 0.1276929, -0.7809829, -0.16604385, -0.58837885, 0.01626163, -0.008411128, 0.056752205, 0
138, 1370716308, 0.12769173, -0.78098184, -0.16604507, -0.58838016, 0.0061771017, -0.008722481, 0.04104328, 0
139, 1370732975, 0.12768984, -0.7809859, -0.16604114, -0.58837634, 0.0051299576, -0.003993506, 0.045238495, 0
140, 1370749642, 0.12769234, -0.78098065, -0.16604866, -0.58838063, -0.013493938, 0.01320604, 0.061598778, 0
141, 1370766309, 0.12768719, -0.7809744, -0.16605453, -0.58838844, 0.004969699, -0.014516049, 0.0539217, 0
142, 1370782976, 0.12767875, -0.7809782, -0.16605169, -0.58838606, -0.007968418, 0.00812369, 0.06727123, 0
143, 1370799643, 0.1276873, -0.7809797, -0.16605423, -0.58838147, 0.0061491765, 0.0022450758, 0.05712986, 0
144, 1370816310, 0.12768541, -0.7809781, -0.1660582, -0.5883829, -0.006531733, 0.0018752737, 0.05710697, 0
145, 1370832977, 0.12768552, -0.78097534, -0.16605498, -0.58838737, -0.0021010078, -0.0030497226, 0.058944702, 0
146, 1370849644, 0.12768301, -0.7809798, -0.16605008, -0.5883834, -0.0050443243, 0.001475409, 0.065831184, 0
147, 1370866311, 0.12768197, -0.780975, -0.1660538, -0.588389, 0.0060575223, -0.0020033466, 0.056048393, 0
148, 1370882978, 0.12767698, -0.7809762, -0.16605482, -0.58838814, -4.5357764E-4, 0.010296348, 0.058660507, 0
149, 1370899645, 0.12768038, -0.78097343, -0.16606385, -0.58838844, -7.116373E-4, -0.0019955237, 0.06478882, 0
150, 1370916312, 0.12768164, -0.78097427, -0.16606292, -0.5883873, -0.014397992, 0.001792574, 0.06023693, 0
151, 1370932979, 0.12769216, -0.78097236, -0.16606027, -0.58838844, 7.993382E-5, 0.0012031703, 0.054481506, 0
152, 1370949646, 0.12768604, -0.78097653, -0.1660513, -0.5883868, -0.009243085, -0.006347768, 0.061297417, 0
153, 1370966313, 0.12767802, -0.78097576, -0.16604474, -0.5883914, -0.014632625, -0.0057340013, 0.035546303, 0
154, 1370982980, 0.1276751, -0.7809796, -0.166045, -0.5883869, -3.1603334E-4, 0.001686517, 0.052392006, 0
155, 1370999647, 0.12768003, -0.78098124, -0.16604365, -0.58838385, -0.0040799356, -0.009140115, 0.052355766, 0
156, 1371016314, 0.12769337, -0.78097856, -0.16604559, -0.588384, 0.012329548, 7.282052E-4, 0.05844879, 0
157, 1371032981, 0.12768675, -0.780976, -0.16604458, -0.588389, -0.011477614, 0.007949574, 0.07059574, 0
158, 1371049648, 0.12768616, -0.78097594, -0.16604528, -0.5883892, -1.5231011E-4, 0.012101551, 0.05778408, 0
159, 1371066315, 0.12768595, -0.78097785, -0.16604465, -0.5883868, -0.0089879725, 0.009765281, 0.06559372, 0
160, 1371082982, 0.12793748, -0.78090715, -0.16638178, -0.58833086, -0.0064880783, -0.0039784187, 0.06925583, 0
161, 1371099649, 0.12797128, -0.7808993, -0.16641715, -0.588324, 0.009460521, -6.054966E-4, 0.057992935, 0
162, 1371116316, 0.12761582, -0.7810009, -0.16595349, -0.5883974, 7.9120795E-4, -0.005454275, 0.05473137, 0
163, 1371132983, 0.12796609, -0.78090155, -0.16640942, -0.58832437, 0.0010593256, 0.003025695, 0.05203533, 0
164, 1371149650, 0.12782145, -0.78094006, -0.16620713, -0.58836174, 0.0028507542, -0.011233649, 0.048804283, 0
165, 1371166317, 0.1279838, -0.78090024, -0.16641168, -0.58832145, -0.01334547, 0.001455181, 0.059124947, 0
166, 1371182984, 0.12778649, -0.7809614, -0.16614632, -0.58835816, 0.009715466, 0.012263709, 0.056217194, 0
167, 1371199651, 0.12728363, -0.7810996, -0.16548762, -0.58846927, 0.009999048, -0.0012702241, 0.06216526, 0
168, 1371216318, 0.1267948, -0.781238, -0.16483949, -0.588573, 0.010804364, 0.0041337605, 0.068172455, 0
169, 1371232985, 0.12679052, -0.78123885, -0.16484682, -0.58857083, 0.012029649, 0.011528798, 0.06017399, 0
170, 1371249652, 0.12672131, -0.78125626, -0.16474757, -0.5885905, 0.0049665417, 0.0074237594, 0.06571102, 0
171, 1371266319, 0.12691003, -0.7812017, -0.16497742, -0.5885579, 0.0029300593, -0.004471712, 0.06566048, 0
172, 1371282986, 0.12681705, -0.78122836, -0.16485777, -0.58857584, 0.0075393715, 0.0010445878, 0.068930626, 0
173, 1371299653, 0.12690233, -0.7812025, -0.16498038, -0.58855766, -0.008753857, -0.0027274168, 0.060100555, 0
174, 1371316320, 0.12679355, -0.7812321, -0.16481142, -0.58858895, 0.0042962404, 0.0016820468, 0.05628109, 0
175, 1371332987, 0.1266886, -0.78125304, -0.16467415, -0.58862233, -0.015122272, 0.0031897533, 0.07125473, 0
176, 1371349654, 0.12679954, -0.78121865, -0.16482636, -0.58860147, -0.016527107, -0.012323722, 0.05704689, 0
177, 1371366321, 0.12690733, -0.78119, -0.16496801, -0.58857656, -0.0043379115, 0.00294903, 0.06744957, 0
178, 1371382988, 0.12688474, -0.7812039, -0.16493885, -0.58857113, 0.012771083, 0.0050151837, 0.06359577, 0
179, 1371399655, 0.12708777, -0.7811466, -0.16521025, -0.5885272, -0.0021135944, 0.007845305, 0.055366516, 0
180, 1371416322, 0.12708418, -0.78115225, -0.16520764, -0.58852124, -8.657914E-4, 0.017620867, 0.052444458, 0
181, 1371432989, 0.1273665, -0.7810802, -0.16557734, -0.5884519, 0.009714795, -0.012906755, 0.057562828, 0
182, 1371449656, 0.12775579, -0.780976, -0.16608398, -0.5883632, 0.0038123766, 9.906094E-4, 0.06755543, 0
183, 1371466323, 0.12816481, -0.78085923, -0.16662648, -0.58827585, -0.0061331955, 0.0013801925, 0.052599907, 0
184, 1371482990, 0.12830016, -0.7808238, -0.16679618, -0.58824503, -0.004255128, -0.0020263684, 0.05970192, 0
185, 1371499657, 0.12820916, -0.7808524, -0.16667211, -0.58826226, -0.014144179, -0.013269741, 0.06811237, 0
186, 1371516324, 0.12792297, -0.7809393, -0.16628824, -0.58831775, -0.006775474, -0.0016978044, 0.05931282, 0
187, 1371532991, 0.12753603, -0.78104377, -0.16579105, -0.58840346, -0.010120429, -0.0045308312, 0.064435005, 0
188, 1371549658, 0.12745436, -0.781066, -0.16569367, -0.5884191, -0.0026351898, -0.010174533, 0.06204796, 0
189, 1371566325, 0.12736031, -0.78109825, -0.1655708, -0.58843124, -0.0036457337, 0.0010193308, 0.058940887, 0
190, 1371582992, 0.12752491, -0.78105515, -0.16579299, -0.5883903, 0.0099737905, -0.0018212954, 0.05649948, 0
191, 1371599659, 0.1272781, -0.78112954, -0.16546105, -0.5884383, -0.0057334844, -0.005149962, 0.054986, 0
192, 1371616326, 0.1272466, -0.78113824, -0.16542606, -0.58844346, 0.019356837, -8.4320264E-4, 0.06027603, 0
193, 1371632993, 0.12722296, -0.7811446, -0.16539061, -0.58845, 4.315616E-4, 0.023680303, 0.06529617, 0
194, 1371649660, 0.12741345, -0.78109384, -0.16564952, -0.58840346, 0.017044678, 0.0067819417, 0.053710938, 0
195, 1371666327, 0.12728742, -0.78112584, -0.1654907, -0.5884329, -0.008237528, 0.0021903152, 0.048381805, 0
196, 1371682994, 0.12735754, -0.78111756, -0.16556248, -0.58840847, 0.0019284837, 0.007991147, 0.062437057, 0
197, 1371699661, 0.127261, -0.7811454, -0.16544259, -0.5884262, 0.005881478, -0.0033901327, 0.062378883, 0
198, 1371716328, 0.1274601, -0.7810898, -0.16569877, -0.5883849, -0.0021599175, -0.015487883, 0.055291176, 0
199, 1371732995, 0.1270232, -0.7812137, -0.16510917, -0.5884805, -0.004479437, -0.0024558485, 0.05986595, 0
200, 1371749662, 0.12697235, -0.78122157, -0.16504192, -0.58849984, -0.0074490025, 0.0037774807, 0.06348133, 0
201, 1371766329, 0.12712114, -0.7811844, -0.16523409, -0.5884633, 4.7476945E-4, 0.009510253, 0.05106163, 0
202, 1371782996, 0.12731256, -0.7811347, -0.16548009, -0.5884186, 0.009981181, 0.004409352, 0.052812576, 0
203, 1371799663, 0.12732476, -0.78113025, -0.16549678, -0.5884172, 0.004173392, 0.0045252433, 0.05531788, 0
204, 1371816330, 0.1274668, -0.78109026, -0.16569313, -0.5883843, 0.005023328, -0.0070707207, 0.05697441, 0
205, 1371832997, 0.12742361, -0.78110117, -0.16563542, -0.58839536, 0.0043111737, 0.007475391, 0.060183525, 0
206, 1371849664, 0.12739956, -0.78110886, -0.16561256, -0.58839685, -0.0014329834, -0.009526569, 0.05106926, 0
207, 1371866331, 0.12723807, -0.78115726, -0.16540211, -0.5884266, -0.012161926, 0.004452378, 0.063593864, 0
208, 1371882998, 0.12716568, -0.7811773, -0.16530176, -0.5884439, -0.0119486675, 7.990588E-5, 0.057052612, 0
209, 1371899665, 0.12722111, -0.781163, -0.16538455, -0.58842766, -0.005973649, -3.4420996E-4, 0.07337284, 0
210, 1371916332, 0.12719019, -0.78117466, -0.16533546, -0.5884326, 5.889147E-4, -0.020510666, 0.05749798, 0
211, 1371932999, 0.1271984, -0.7811764, -0.16534147, -0.58842707, 0.009573437, -0.013089701, 0.05284214, 0
212, 1371949666, 0.12724093, -0.78116983, -0.16539457, -0.5884117, 5.973244E-4, 0.0035857067, 0.061644554, 0
213, 1371966333, 0.1271999, -0.7811792, -0.16534832, -0.588421, 0.008860584, 0.010795676, 0.05130768, 0
214, 1371983000, 0.12720832, -0.78117853, -0.1653553, -0.58841807, 0.012217372, 7.827424E-4, 0.056199074, 0
215, 1371999667, 0.12721401, -0.7811798, -0.1653619, -0.58841336, 0.022989802, -0.002532737, 0.057400703, 0
216, 1372016334, 0.12721325, -0.7811802, -0.16535695, -0.58841425, 0.0061332793, -0.0050327294, 0.057785988, 0
217, 1372033001, 0.12722039, -0.7811758, -0.16537145, -0.5884146, -0.004429971, -0.006171975, 0.045456886, 0
218, 1372049668, 0.12722108, -0.7811698, -0.16538827, -0.58841777, -0.0013335202, -0.01309853, 0.06527424, 0
219, 1372066335, 0.12707722, -0.7812119, -0.16520391, -0.58844465, -0.0058593783, -0.002296372, 0.05618477, 0
220, 1372083002, 0.12708062, -0.7812144, -0.16518888, -0.58844477, -0.0064134947, -0.0026412527, 0.06376839, 0
221, 1372099669, 0.1270961, -0.7812122, -0.1652021, -0.58844066, -0.0070381714, -0.016224358, 0.06953621, 0
222, 1372116336, 0.12708753, -0.78121424, -0.1652054, -0.58843887, -7.434879E-4, 0.0015565442, 0.061522484, 0
223, 1372133003, 0.1271276, -0.78119785, -0.16525075, -0.58843917, 0.016454088, 0.0074677914, 0.047266006, 0
224, 1372149670, 0.12711677, -0.78120106, -0.16523512, -0.5884418, -0.007115982, 0.004037985, 0.050863266, 0
225, 1372166337, 0.12710537, -0.7811989, -0.16522008, -0.5884514, -0.0028551405, 0.0018361589, 0.061468124, 0
226, 1372183004, 0.12712869, -0.7811923, -0.16526045, -0.5884435, 0.010706997, 0.0076081576, 0.05580139, 0
227, 1372199671, 0.12715472, -0.78118366, -0.16530298, -0.5884375, 0.0077037653, 0.0104469955, 0.046869278, 0
228, 1372216338, 0.12713577, -0.78118765, -0.16527842, -0.5884431, 0.015928833, -0.0064467844, 0.06898308, 0
229, 1372233005, 0.12715276, -0.7811812, -0.16529202, -0.58844423, -9.95401E-4, -0.004290331, 0.067528725, 0
230, 1372249672, 0.12717731, -0.7811779, -0.1653282, -0.58843327, 4.9699505E-4, -0.0013967324, 0.062047005, 0
231, 1372266339, 0.12720117, -0.78116715, -0.1653654, -0.5884319, 0.020256002, -0.004080676, 0.05513382, 0
232, 1372283006, 0.12723891, -0.7811586, -0.16540448, -0.58842397, 0.001403801, -0.01553985, 0.05542183, 0
233, 1372299673, 0.1272022, -0.78116935, -0.16535923, -0.58843046, 2.951349E-4, -0.008534283, 0.06184864, 0
234, 1372316340, 0.1271822, -0.7811735, -0.16533475, -0.58843607, 0.0046983543, -0.0041809217, 0.05768776, 0
235, 1372333007, 0.12717341, -0.78117347, -0.16532442, -0.58844095, 0.004631202, 0.013993252, 0.047268867, 0
236, 1372349674, 0.12717994, -0.7811736, -0.16533434, -0.5884367, -0.003818272, 0.0011769074, 0.058382034, 0
237, 1372366341, 0.12720095, -0.78116816, -0.16536081, -0.58843184, 0.005334025, 0.0062239417, 0.06967735, 0
238, 1372383008, 0.12719168, -0.7811732, -0.1653377, -0.58843356, 0.0033113305, 0.004021557, 0.039895058, 0
239, 1372399675, 0.12714988, -0.78114724, -0.16532016, -0.58848214, 0.0068944944, 0.007198458, 0.057814598, 0
240, 1372416342, 0.12713182, -0.7811535, -0.16530375, -0.5884824, 0.003988854, -0.004935166, 0.05156517, 0
241, 1372433009, 0.12712981, -0.78115565, -0.16530779, -0.5884788, 0.011795365, 0.0087687485, 0.06016922, 0
242, 1372449676, 0.1271185, -0.7811565, -0.16530813, -0.5884801, -0.01683459, -0.015978271, 0.05425453, 0
243, 1372466343, 0.12710908, -0.7811555, -0.16531257, -0.5884822, 0.00873314, -0.008097539, 0.05954361, 0
244, 1372483010, 0.12713826, -0.7811587, -0.16534588, -0.5884622, 0.006195374, 0.002423551, 0.055369377, 0
245, 1372499677, 0.12715581, -0.78114414, -0.16538326, -0.5884672, 0.010595171, -0.008481311, 0.06719589, 0
246, 1372516344, 0.12717457, -0.78113884, -0.16539955, -0.5884655, -0.0036468513, -9.7518705E-4, 0.058552742, 0
247, 1372533011, 0.1271718, -0.7811418, -0.16538686, -0.5884657, 0.009503603, 0.016837567, 0.04467678, 0
248, 1372549678, 0.12701702, -0.78118396, -0.16518264, -0.5885007, 0.003546061, -0.0075540673, 0.07085705, 0
249, 1372566345, 0.12701035, -0.78118515, -0.16517615, -0.5885023, 0.016293703, 6.3287694E-4, 0.05952072, 0
250, 1372583012, 0.12699774, -0.7811894, -0.1651567, -0.58850473, 7.9942204E-4, 0.0042015966, 0.05529213, 0
251, 1372599679, 0.12699902, -0.7811914, -0.16516604, -0.5884994, 0.006417937, 0.007593964, 0.066752434, 0
252, 1372616346, 0.12698321, -0.781199, -0.1651618, -0.5884939, 9.312528E-4, -0.0055521736, 0.06905842, 0
253, 1372633013, 0.12703213, -0.78119004, -0.16521926, -0.58847916, 0.0043150573, -0.003593753, 0.04550743, 0
254, 1372649680, 0.12702729, -0.7811889, -0.16521908, -0.58848166, 0.006762552, -0.017390091, 0.05224991, 0
255, 1372666347, 0.12706012, -0.78117925, -0.16525772, -0.5884766, -3.4908534E-4, 0.011180565, 0.054849625, 0
256, 1372683014, 0.12708306, -0.78116906, -0.16528854, -0.5884765, 0.013709377, 0.016139759, 0.07076168, 0
257, 1372699681, 0.12710707, -0.78116065, -0.16533057, -0.5884706, -0.008147117, 0.0053331307, 0.048991203, 0
258, 1372716348, 0.1270786, -0.781171, -0.16529039, -0.5884743, -0.0010814116, 0.0064635477, 0.053563118, 0
259, 1372733015, 0.12707594, -0.78116655, -0.16529964, -0.58847815, 0.0044347066, -6.0359674E-4, 0.073599815, 0
260, 1372749682, 0.12708175, -0.78116775, -0.16530165, -0.58847475, 0.004897993, 0.0072483015, 0.04728031, 0
261, 1372766349, 0.12708208, -0.78116196, -0.16529962, -0.58848286, -2.045842E-4, -0.0013687933, 0.053022385, 0
262, 1372783016, 0.1271374, -0.78114796, -0.16537769, -0.5884678, 0.003060605, 0.010271762, 0.061738014, 0
263, 1372799683, 0.12714179, -0.7811489, -0.16537899, -0.5884652, 0.008950269, 0.005488696, 0.05461979, 0
264, 1372816350, 0.12714052, -0.78115016, -0.1653839, -0.5884625, -0.012325524, -0.0070693796, 0.052423477, 0
265, 1372833017, 0.12720072, -0.78113467, -0.16546643, -0.5884468, -1.6481287E-4, 0.0061569996, 0.06942177, 0
266, 1372849684, 0.12726508, -0.781116, -0.16554603, -0.58843523, -0.014850355, -0.0057459595, 0.0638895, 0
267, 1372866351, 0.12722233, -0.78112894, -0.16548403, -0.58844465, -0.008024646, 0.0022163545, 0.056319237, 0
268, 1372883018, 0.12723961, -0.78112257, -0.16550677, -0.588443, -0.0024770964, -0.004482664, 0.05851841, 0
269, 1372899685, 0.12722519, -0.7811216, -0.16548406, -0.58845377, 0.013233238, -0.0014423291, 0.0680666, 0
270, 1372916352, 0.12721986, -0.7811154, -0.16548474, -0.5884629, -0.016194254, -0.0146636795, 0.064946175, 0
271, 1372933019, 0.12720914, -0.78111356, -0.16547434, -0.58847064, -0.006034179, -0.012138095, 0.041586876, 0
272, 1372949686, 0.12723345, -0.78111005, -0.16550784, -0.5884606, 0.013778764, 0.010548918, 0.06237316, 0
273, 1372966353, 0.12720896, -0.78111506, -0.16546749, -0.5884707, 0.011879909, 0.009416601, 0.05007267, 0
274, 1372983020, 0.12720722, -0.7811147, -0.16545819, -0.58847404, -0.008352637, 9.1640314E-4, 0.0655632, 0
275, 1372999687, 0.12720372, -0.78110963, -0.16545704, -0.5884819, 0.0052179378, 0.008007463, 0.05520916, 0
276, 1373016354, 0.12725572, -0.78109545, -0.16552499, -0.5884704, -0.008953831, -0.0035164175, 0.058757782, 0
277, 1373033021, 0.12721838, -0.7811066, -0.16548267, -0.58847564, -0.0014168347, -0.0011809306, 0.05114174, 0
278, 1373049688, 0.1272088, -0.78111285, -0.1654717, -0.5884724, -0.020372368, -0.020344596, 0.058854103, 0
279, 1373066355, 0.12719761, -0.7811184, -0.16545168, -0.58847314, -0.0020682632, -0.011830429, 0.05281067, 0
280, 1373083022, 0.12721014, -0.7811191, -0.16546378, -0.5884661, 0.0038453168, -0.016093269, 0.064463615, 0
281, 1373099689, 0.12723796, -0.78111434, -0.1654948, -0.58845764, -0.007066348, 0.010054395, 0.058465004, 0
282, 1373116356, 0.12725581, -0.781111, -0.16551392, -0.58845276, 0.008451472, 0.007278364, 0.045394897, 0
283, 1373133023, 0.12724301, -0.78111655, -0.16547698, -0.5884586, 0.013388021, 0.0047747954, 0.055431366, 0
284, 1373149690, 0.12724024, -0.7811165, -0.16546328, -0.58846307, 0.01242929, -0.0050006555, 0.06252003, 0
285, 1373166357, 0.12725343, -0.7811194, -0.1654656, -0.5884557, 0.018957615, 0.0029745104, 0.04314804, 0
286, 1373183024, 0.12728758, -0.7811123, -0.16550492, -0.58844686, -0.0051528257, -0.002486917, 0.048164368, 0
287, 1373199691, 0.12731539, -0.7811041, -0.165546, -0.5884402, 0.021551916, -0.010604237, 0.05829811, 0
288, 1373216358, 0.1272948, -0.78111064, -0.1655157, -0.58844435, -0.009570001, 9.993265E-4, 0.06124878, 0
289, 1373233025, 0.1272722, -0.78112245, -0.1654915, -0.58844036, 0.0035921186, -0.0030603395, 0.07587528, 0
290, 1373249692, 0.12727451, -0.7811244, -0.16548435, -0.5884393, 0.015025044, -0.0018534812, 0.057113647, 0
291, 1373266359, 0.12728995, -0.7811205, -0.16550355, -0.58843565, 0.01308403, -0.0027955882, 0.06618881, 0
292, 1373283026, 0.12728833, -0.7811202, -0.1655142, -0.58843356, 0.007906296, 0.006238135, 0.057626724, 0
293, 1373299693, 0.1272891, -0.7811197, -0.16550757, -0.5884358, 0.0048151817, -0.0024074581, 0.056043625, 0
294, 1373316360, 0.12727904, -0.7811275, -0.16550311, -0.58842885, 0.009745165, 0.010001423, 0.05887413, 0
295, 1373333027, 0.1272479, -0.7811355, -0.16546421, -0.5884361, -0.006151677, 0.009992147, 0.054122925, 0
296, 1373349694, 0.12724897, -0.7811326, -0.16546081, -0.5884406, 0.005707124, -0.0014655745, 0.04964924, 0
297, 1373366361, 0.12723055, -0.78113914, -0.16542804, -0.58844507, -0.003759921, -0.007197005, 0.062312126, 0
298, 1373383028, 0.12724547, -0.78113496, -0.16545308, -0.5884404, -0.009483362, 0.001695234, 0.059147835, 0
299, 1373399695, 0.12724966, -0.7811326, -0.16544741, -0.58844435, -0.0020828333, 0.0016529901, 0.05201435, 0
300, 1373416362, 0.12724082, -0.78113717, -0.16543822, -0.58844274, 0.005592713, 0.0026243774, 0.061120987, 0
301, 1373433029, 0.1272252, -0.78114134, -0.16542125, -0.5884454, -0.00487268, -0.008520314, 0.059005737, 0
302, 1373449696, 0.12718903, -0.7811484, -0.16538519, -0.58845395, 0.008064683, -0.011503094, 0.058526993, 0
303, 1373466363, 0.12717381, -0.78115237, -0.1653618, -0.5884585, -0.0018828592, -0.005905883, 0.054276466, 0
304, 1373483030, 0.12717623, -0.78114724, -0.16537057, -0.5884623, -0.010948069, -0.0040281503, 0.0631752, 0
305, 1373499697, 0.12718825, -0.7811439, -0.16537958, -0.5884617, -0.0043778224, -0.01197113, 0.067162514, 0
306, 1373516364, 0.12718464, -0.7811413, -0.16536506, -0.5884699, -0.004930654, -0.016772524, 0.05541134, 0
307, 1373533031, 0.12716551, -0.78114754, -0.16533774, -0.5884735, -0.0030141002, 0.0076563247, 0.041451454, 0
308, 1373549698, 0.12717322, -0.78114754, -0.16534166, -0.5884706, -0.0043017026, -0.00829233, 0.07669163, 0
309, 1373566365, 0.12719363, -0.78115034, -0.16536605, -0.5884556, -0.0045423, 0.007772775, 0.059553146, 0
310, 1373583032, 0.12718725, -0.7811515, -0.16536076, -0.588457, 0.0020309505, 0.0053561525, 0.056996346, 0
311, 1373599699, 0.12720172, -0.7811496, -0.16537297, -0.5884527, 0.0042576143, -0.0063508973, 0.0474329, 0
312, 1373616366, 0.12718162, -0.7811532, -0.16534382, -0.5884606, 0.004115628, 0.0033503475, 0.056456566, 0
313, 1373633033, 0.12719299, -0.7811539, -0.16535527, -0.588454, 0.0053430214, -0.010490357, 0.051241875, 0
314, 1373649700, 0.12721759, -0.7811451, -0.16537717, -0.5884543, -0.0011267149, -0.0031548853, 0.05576992, 0
315, 1373666367, 0.12721832, -0.78114015, -0.16537793, -0.5884605, 0.008357122, -0.0047419393, 0.051654816, 0
316, 1373683034, 0.12720421, -0.7811403, -0.16536848, -0.58846617, 0.014923974, 0.0029771926, 0.055976868, 0
317, 1373699701, 0.12718125, -0.7811447, -0.16535124, -0.5884699, -0.0018166434, -0.005199023, 0.058000565, 0
318, 1373716368, 0.12718813, -0.7811396, -0.16536823, -0.58847046, 0.0052288203, 0.0038457639, 0.070985794, 0
319, 1373733035, 0.12719049, -0.78113776, -0.16537063, -0.58847165, 0.001988916, 0.020190932, 0.057478905, 0
320, 1373749702, 0.12717651, -0.7811425, -0.16533959, -0.588477, 0.0029901564, -0.0055038948, 0.060890198, 0
321, 1373766369, 0.12720425, -0.78113425, -0.16538154, -0.58847034, 0.0036088263, -0.0022884374, 0.054597855, 0
322, 1373783036, 0.12724555, -0.78112507, -0.1654231, -0.588462, -0.0023191285, -0.0082552275, 0.04786873, 0
323, 1373799703, 0.12725626, -0.7811239, -0.16544195, -0.588456, 0.011155937, -0.008547806, 0.060035706, 0
324, 1373816370, 0.12723663, -0.78113234, -0.16541283, -0.5884571, 0.0020398211, -0.0015214527, 0.04648781, 0
325, 1373833037, 0.1272183, -0.78113526, -0.16539134, -0.58846325, -0.0056546265, -0.003172543, 0.059631348, 0
326, 1373849704, 0.12716205, -0.78114706, -0.16531913, -0.58848006, -0.0107737295, 0.0017198204, 0.041927338, 0
327, 1373866371, 0.12714489, -0.78114474, -0.16530944, -0.5884896, 0.0045588124, 0.00752434, 0.06240177, 0
328, 1373883038, 0.1271595, -0.78113776, -0.16532606, -0.5884909, 0.0024017445, -0.0029213144, 0.07284832, 0
329, 1373899705, 0.12718044, -0.7811362, -0.16536161, -0.58847845, 0.0028850494, 3.2744647E-5, 0.06965542, 0
330, 1373916372, 0.1272038, -0.7811348, -0.16537952, -0.58847034, 0.011378472, 0.011826629, 0.044442177, 0
331, 1373933039, 0.12721047, -0.78113335, -0.16539098, -0.58846754, 0.010028956, 0.0023416334, 0.054372787, 0
332, 1373949706, 0.12724885, -0.781121, -0.16545671, -0.5884572, -0.003607583, 0.009468456, 0.05774498, 0
333, 1373966373, 0.12725934, -0.78111404, -0.1654552, -0.5884646, 0.0055325464, 0.0059937234, 0.050523758, 0
334, 1373983040, 0.12724496, -0.7811201, -0.16544384, -0.5884627, -0.0017412916, 0.0032180278, 0.062851906, 0
335, 1373999707, 0.12723523, -0.7811201, -0.16543405, -0.5884676, 0.008253537, 0.0031343221, 0.05501175, 0
336, 1374016374, 0.12718335, -0.78112936, -0.16538411, -0.58848053, -0.016890679, -0.021267481, 0.060952187, 0
337, 1374033041, 0.12719712, -0.78113043, -0.16539952, -0.5884718, 0.012767409, 0.0032655243, 0.055090904, 0
338, 1374049708, 0.12718678, -0.78113234, -0.16539077, -0.58847386, 0.013891204, -0.008476058, 0.06811142, 0
339, 1374066375, 0.12718241, -0.7811341, -0.1653816, -0.5884753, 0.01228275, 0.011430117, 0.05974388, 0
340, 1374083042, 0.12719178, -0.7811294, -0.16538885, -0.5884774, 0.01814886, -0.0032355736, 0.04882908, 0
341, 1374099709, 0.1272075, -0.78112894, -0.16540296, -0.5884707, -0.01065246, 0.004685949, 0.060050964, 0
342, 1374116376, 0.12720178, -0.7811316, -0.16539834, -0.58846974, -0.013766582, 0.012392564, 0.048086166, 0
343, 1374133043, 0.12719655, -0.7811258, -0.16539645, -0.5884791, 7.546775E-4, 6.363414E-4, 0.065359116, 0
344, 1374149710, 0.12723958, -0.78110814, -0.16545871, -0.5884757, 0.0065456606, 0.01763372, 0.049510956, 0
345, 1374166377, 0.12724973, -0.78110826, -0.16546065, -0.58847266, 0.0046239523, 0.0022545753, 0.054175377, 0
346, 1374183044, 0.12724821, -0.781109, -0.16545878, -0.58847266, 5.192765E-4, 0.0025046861, 0.06747246, 0
347, 1374199711, 0.12724596, -0.781106, -0.16545983, -0.5884768, 0.006916776, 0.007341618, 0.058501244, 0
348, 1374216378, 0.12723236, -0.78110933, -0.16544668, -0.5884789, -0.0029505107, 0.004238029, 0.06365681, 0
349, 1374233045, 0.12723148, -0.7811065, -0.16544668, -0.5884829, -0.0014629621, -0.005994841, 0.073140144, 0
350, 1374249712, 0.12724036, -0.781106, -0.16544801, -0.5884813, 0.00436423, -0.012878481, 0.05646324, 0
351, 1374266379, 0.12723236, -0.7811109, -0.16543786, -0.5884794, 0.0027759052, -0.009504665, 0.06380367, 0
352, 1374283046, 0.1272257, -0.781114, -0.16544205, -0.5884754, 0.004853486, -0.0062908838, 0.053173065, 0
353, 1374299713, 0.12718272, -0.7811246, -0.16538867, -0.5884858, -0.0039685844, 0.008104244, 0.049203873, 0
354, 1374316380, 0.12716469, -0.78113025, -0.16536207, -0.5884897, 0.0016891712, 0.008452701, 0.05527687, 0
355, 1374333047, 0.12718184, -0.7811266, -0.16539554, -0.58848137, 0.008709084, 0.0063107763, 0.056568146, 0
356, 1374349714, 0.12719865, -0.7811184, -0.16541058, -0.58848435, -0.009075464, 0.002147289, 0.06755352, 0
357, 1374366381, 0.12716627, -0.7811286, -0.1653751, -0.5884878, -7.876317E-4, -0.008098656, 0.05496502, 0
358, 1374383048, 0.12717244, -0.7811285, -0.16537991, -0.58848524, 0.0047147265, -4.693772E-5, 0.0576725, 0
359, 1374399715, 0.12713051, -0.7811415, -0.16530629, -0.5884978, -0.009006427, -0.011025671, 0.055293083, 0
360, 1374416382, 0.12710327, -0.7811439, -0.16526978, -0.5885108, -0.0031545921, 0.008261262, 0.066516876, 0
361, 1374433049, 0.12717073, -0.7811293, -0.16536461, -0.588489, -0.008059011, -0.0054225363, 0.0581007, 0
362, 1374449716, 0.12720692, -0.78111285, -0.16541359, -0.5884892, -0.006360452, 0.004661586, 0.058989525, 0
363, 1374466383, 0.1272234, -0.7811082, -0.1654361, -0.5884855, 0.008428394, 0.018880028, 0.055169106, 0
364, 1374483050, 0.12721173, -0.7811094, -0.1654124, -0.5884931, 0.0019073199, 7.5402093E-4, 0.05689621, 0
365, 1374499717, 0.12721398, -0.78110874, -0.16540158, -0.5884965, -0.003504669, 0.0056013465, 0.06947327, 0
366, 1374516384, 0.1272457, -0.78109276, -0.16543676, -0.58850104, 0.0024107827, 0.0023585088, 0.05575657, 0
367, 1374533051, 0.12725583, -0.78108495, -0.16546078, -0.58850247, -0.0010826269, -0.0019076831, 0.051734924, 0
368, 1374549718, 0.12724788, -0.7810829, -0.16544546, -0.58851105, -2.203279E-4, 0.0022293183, 0.050058365, 0
369, 1374566385, 0.1272509, -0.7810834, -0.16544574, -0.5885096, -0.008645398, -0.0051859478, 0.051122665, 0
370, 1374583052, 0.12725276, -0.78108656, -0.16544957, -0.58850414, 0.0046844543, -0.0014798793, 0.06459904, 0
371, 1374599719, 0.12724926, -0.7810884, -0.16544236, -0.5885045, 0.0014778398, 0.009295345, 0.054525375, 0
372, 1374616386, 0.12725656, -0.78108346, -0.16546291, -0.58850366, 0.0048350324, -0.0044647832, 0.06021881, 0
373, 1374633053, 0.12725294, -0.7810851, -0.16545923, -0.5885033, -0.014518661, -0.0030014438, 0.06479359, 0
374, 1374649720, 0.1271935, -0.78110105, -0.16538537, -0.58851564, 0.0016151745, 0.0041576764, 0.066327095, 0
375, 1374666387, 0.12719497, -0.78110665, -0.1653887, -0.5885069, -0.0059972717, -0.0035757602, 0.073931694, 0
376, 1374683054, 0.1272112, -0.78110254, -0.16541529, -0.5885014, -0.0061569437, -0.0067093, 0.054053307, 0
377, 1374699721, 0.12724955, -0.78109586, -0.16546784, -0.5884872, -0.012840526, -0.0073419535, 0.051265717, 0
378, 1374716388, 0.12725727, -0.7810962, -0.1654692, -0.58848476, 0.007942324, 0.012278014, 0.059493065, 0
379, 1374733055, 0.12720035, -0.7811125, -0.16539462, -0.5884965, -0.022833804, -0.0015842598, 0.06078911, 0
380, 1374749722, 0.1271703, -0.78111756, -0.16534376, -0.58851045, 0.0019652934, -0.006394147, 0.054439545, 0
381, 1374766389, 0.12717591, -0.78111553, -0.1653472, -0.588511, 0.011007566, 0.012261585, 0.058751106, 0
382, 1374783056, 0.12716873, -0.781116, -0.16534485, -0.58851254, -7.6319894E-4, 0.0059256637, 0.056695938, 0
383, 1374799723, 0.12714332, -0.7811223, -0.16530606, -0.58852047, 0.0013625489, -0.012818021, 0.049248695, 0
384, 1374816390, 0.12713884, -0.78112644, -0.16530272, -0.58851695, 0.0016042503, -0.0042007025, 0.046336174, 0
385, 1374833057, 0.12715626, -0.7811246, -0.16532193, -0.5885103, 0.003637366, -0.008969687, 0.05527115, 0
386, 1374849724, 0.12715411, -0.78112096, -0.16532277, -0.5885152, -0.004525299, -0.010887093, 0.05898857, 0
387, 1374866391, 0.12715875, -0.781124, -0.16532311, -0.5885101, -0.0013994006, -0.0054332647, 0.058016777, 0
388, 1374883058, 0.12717213, -0.78111506, -0.16533342, -0.5885162, -0.005197291, 0.011312661, 0.05804825, 0
389, 1374899725, 0.12717411, -0.7811118, -0.16533828, -0.588519, 0.0033582961, -0.014422956, 0.066147804, 0
390, 1374916392, 0.12718295, -0.78111786, -0.16533498, -0.5885098, 0.01651297, -0.005761717, 0.062726974, 0
391, 1374933059, 0.12720716, -0.78111345, -0.16536225, -0.58850276, 0.0017978125, 0.0116562005, 0.056293488, 0
392, 1374949726, 0.12725173, -0.781098, -0.16542833, -0.5884951, 0.017907914, -0.0014003087, 0.049188614, 0
393, 1374966393, 0.1272302, -0.78110796, -0.1653864, -0.5884983, -0.011184644, -0.003248649, 0.05053997, 0
394, 1374983060, 0.12723419, -0.78110456, -0.16538595, -0.5885022, 0.0038170984, -9.231085E-5, 0.043099403, 0
395, 1374999727, 0.12723137, -0.7811066, -0.1653803, -0.5885016, -0.009383409, -0.012794776, 0.053400993, 0
396, 1375016394, 0.12722997, -0.7811057, -0.16536795, -0.5885064, 0.009359339, 0.01033725, 0.058506012, 0
397, 1375033061, 0.1272036, -0.7811088, -0.16533685, -0.58851695, -0.0020993454, -5.238026E-4, 0.072369576, 0
398, 1375049728, 0.12719718, -0.78111124, -0.16532981, -0.5885169, 0.00360525, -8.057642E-5, 0.06121826, 0
399, 1375066395, 0.1271912, -0.7811176, -0.16531509, -0.58851385, -0.0020123988, -0.0075605493, 0.055221558, 0
400, 1375083062, 0.12718126, -0.78112537, -0.16529456, -0.58851147, 0.0033890011, -0.0014891551, 0.052796364, 0
401, 1375099729, 0.12719399, -0.7811132, -0.16531114, -0.5885203, -0.0060994592, -0.006505568, 0.045262337, 0
402, 1375116396, 0.12720805, -0.78111064, -0.16531491, -0.5885195, 0.014091696, -0.008146153, 0.059381485, 0
403, 1375133063, 0.12720063, -0.7811141, -0.16530795, -0.5885184, 0.0026394087, 0.0013580647, 0.052132607, 0
404, 1375149730, 0.12720591, -0.7811127, -0.16531837, -0.5885164, 0.0035773108, 0.010787965, 0.056145668, 0
405, 1375166397, 0.12721159, -0.78111327, -0.16533008, -0.5885111, -2.0088228E-5, -0.009644025, 0.04879093, 0
406, 1375183064, 0.12720397, -0.78111845, -0.16532174, -0.5885082, -0.0068129543, 0.011914247, 0.049985886, 0
407, 1375199731, 0.12723419, -0.78110665, -0.1653701, -0.5885037, 3.9230715E-4, 0.0117285075, 0.054073334, 0
408, 1375216398, 0.12726, -0.7811049, -0.16538857, -0.5884954, 0.024593424, 0.004509821, 0.05262661, 0
409, 1375233065, 0.127273, -0.78110653, -0.16539097, -0.5884895, 0.0022379095, -0.023253506, 0.05582142, 0
410, 1375249732, 0.12726156, -0.7811124, -0.16536753, -0.588491, -0.012997013, 0.005724614, 0.050572395, 0
411, 1375266399, 0.12728296, -0.78110456, -0.1653888, -0.5884907, 0.0033246994, 0.0020312858, 0.059817314, 0
412, 1375283066, 0.12731652, -0.7810983, -0.16542722, -0.58848083, -0.008948229, -0.0035977764, 0.07161617, 0
413, 1375299733, 0.12734853, -0.78109103, -0.16547284, -0.58847094, -0.0108798845, -0.026964044, 0.056419373, 0
414, 1375316400, 0.12734209, -0.78109103, -0.16546676, -0.58847404, -0.0054600583, -0.011790979, 0.052135468, 0
415, 1375333067, 0.12734902, -0.7810931, -0.16547787, -0.58846664, -0.0047330125, -0.009676323, 0.049632072, 0
416, 1375349734, 0.127346, -0.7810931, -0.1654772, -0.5884674, -0.006002664, 0.020640416, 0.054463387, 0
417, 1375366401, 0.12734184, -0.78109866, -0.16547579, -0.58846134, 0.0032205982, -0.0049062213, 0.05368042, 0
418, 1375383068, 0.12733217, -0.78109735, -0.16545625, -0.5884706, -0.015276147, 8.624247E-4, 0.05055523, 0
419, 1375399735, 0.12734737, -0.78109014, -0.16547213, -0.5884724, -0.0033292815, 0.0021783572, 0.059822083, 0
420, 1375416402, 0.12731381, -0.7811039, -0.16542314, -0.58847517, -0.0036659618, 0.001090408, 0.062363625, 0
421, 1375433069, 0.1272702, -0.7811139, -0.16536184, -0.5884886, -0.006560259, 0.008233547, 0.050570488, 0
422, 1375449736, 0.12725826, -0.7811149, -0.16534957, -0.5884934, 0.0075846747, -0.005428012, 0.052612305, 0
423, 1375466403, 0.12723838, -0.7811185, -0.16532277, -0.5885005, 0.0033196982, -0.002243176, 0.06026745, 0
424, 1375483070, 0.12725438, -0.781119, -0.16533369, -0.58849317, -0.0072454936, 0.010738568, 0.047597885, 0
425, 1375499737, 0.12724876, -0.7811298, -0.16532333, -0.588483, 0.012450538, 0.0030251362, 0.0707407, 0
426, 1375516404, 0.12727085, -0.78112113, -0.1653549, -0.58848083, -0.015763503, -0.008719687, 0.04772854, 0
427, 1375533071, 0.12727891, -0.781122, -0.16537419, -0.58847255, 0.010731486, -0.016439825, 0.05234337, 0
428, 1375549738, 0.12730338, -0.7811121, -0.1654039, -0.588472, -0.016542487, -0.007828318, 0.06725693, 0
429, 1375566405, 0.12728347, -0.7811181, -0.16538309, -0.5884742, 0.0023654795, 8.2431576E-4, 0.06667423, 0
430, 1375583072, 0.1273123, -0.78111535, -0.16540383, -0.5884659, -0.00813319, 0.005083355, 0.057634354, 0
431, 1375599739, 0.12734145, -0.7811097, -0.16545187, -0.58845365, -5.5943895E-4, 0.0072153336, 0.06652641, 0
432, 1375616406, 0.12732081, -0.7811151, -0.16542825, -0.5884575, 0.010868946, 0.0063293283, 0.04808998, 0
433, 1375633073, 0.1273463, -0.78110206, -0.16546394, -0.5884592, -0.0021696822, -1.9870301E-4, 0.053621292, 0
434, 1375649740, 0.12735139, -0.78110254, -0.16546966, -0.588456, 7.946025E-4, -0.00972896, 0.057030678, 0
435, 1375666407, 0.12740682, -0.78108436, -0.1655408, -0.588448, 0.014152184, 0.0036811465, 0.051232338, 0
436, 1375683074, 0.12742458, -0.7810789, -0.16555302, -0.5884479, 0.0011887816, -0.004594197, 0.056619644, 0
437, 1375699741, 0.12742627, -0.78107464, -0.16556144, -0.5884508, -0.002918269, -0.0105459, 0.058499336, 0
438, 1375716408, 0.12738048, -0.7810948, -0.16549951, -0.5884514, -4.872862E-4, 9.309315E-5, 0.06584072, 0
439, 1375733075, 0.12735832, -0.78109837, -0.16547261, -0.5884591, 0.013400761, 0.007178342, 0.065639496, 0
440, 1375749742, 0.1273603, -0.78110546, -0.16546965, -0.5884501, 0.0031099871, 0.006506462, 0.057549477, 0
441, 1375766409, 0.12738624, -0.78109735, -0.16549619, -0.5884477, 0.005956816, -0.016135735, 0.076761246, 0
442, 1375783076, 0.12740348, -0.78109795, -0.16551144, -0.5884389, -0.011697173, -0.0029129325, 0.057587624, 0
443, 1375799743, 0.12741347, -0.7810935, -0.16551578, -0.58844143, 0.013410163, -2.0999042E-4, 0.059199333, 0
444, 1375816410, 0.12741247, -0.7810956, -0.16551583, -0.5884388, -0.013170725, -0.0024674712, 0.059562683, 0
445, 1375833077, 0.12742285, -0.78109246, -0.165526, -0.58843786, 0.012278712, -0.009358934, 0.07075977, 0
446, 1375849744, 0.12741093, -0.7810899, -0.16550891, -0.5884488, -0.0047512846, 0.0038656567, 0.060777664, 0
447, 1375866411, 0.12743081, -0.7810879, -0.1655253, -0.5884425, 0.01014746, -0.0052768057, 0.061095238, 0
448, 1375883078, 0.12740862, -0.7810972, -0.16549261, -0.58844405, -0.010082711, -0.006396494, 0.061120987, 0
449, 1375899745, 0.12739377, -0.78110385, -0.1654759, -0.5884433, 0.0035620842, 0.007289763, 0.05481243, 0
450, 1375916412, 0.12738904, -0.7811109, -0.16547765, -0.5884346, 0.009018636, -0.013386973, 0.067502975, 0
451, 1375933079, 0.12738255, -0.7811064, -0.16546035, -0.5884466, 0.0022617555, -0.013166925, 0.053578377, 0
452, 1375949746, 0.12739879, -0.78111047, -0.16549295, -0.58842844, 0.004208344, 0.008561216, 0.059924126, 0
453, 1375966413, 0.12740019, -0.7811084, -0.16551109, -0.5884257, 2.5569883E-4, -2.2060728E-4, 0.05123043, 0
454, 1375983080, 0.12739474, -0.7811119, -0.16551553, -0.58842105, -0.011532263, -0.006562676, 0.0729723, 0
455, 1375999747, 0.12736262, -0.78112066, -0.16546713, -0.5884301, 0.011776158, 0.0037235024, 0.057476044, 0
456, 1376016414, 0.12740225, -0.7811101, -0.16553378, -0.5884167, -0.011387873, 5.569943E-4, 0.063920975, 0
457, 1376033081, 0.1273634, -0.78112, -0.16545238, -0.5884349, -0.0026371875, -0.009975942, 0.056895256, 0
458, 1376049748, 0.12741134, -0.78109646, -0.16543312, -0.58846116, -0.035947252, -0.042433713, 0.05682373, 0
459, 1376066415, 0.12750876, -0.78105223, -0.16536622, -0.58851755, -0.06727854, 0.03251767, 0.077376366, 0
460, 1376083082, 0.12779835, -0.78093517, -0.16545048, -0.58858645, -0.1778928, -0.12170431, 0.046129227, 0
461, 1376099749, 0.12832339, -0.78076, -0.16580915, -0.58860373, 0.12117428, 0.076312914, 0.056985855, 0
462, 1376116416, 0.1285327, -0.78069997, -0.16630344, -0.58849823, 0.04746489, 0.05249023, 0.06606674, 0
463, 1376133083, 0.12864342, -0.78068113, -0.16665109, -0.58840066, 0.0333332, 0.044931244, 0.070599556, 0
464, 1376149750, 0.12841617, -0.78078645, -0.16671802, -0.5882916, 0.03493808, -0.03443932, 0.046245575, 0
465, 1376166417, 0.12839505, -0.7807997, -0.1667485, -0.58827, -0.009392671, 0.017028222, 0.074233055, 0
466, 1376183084, 0.12812185, -0.78089005, -0.16643327, -0.58829886, -0.002573137, -0.01648978, 0.06261253, 0
467, 1376199751, 0.12782265, -0.7809861, -0.16605265, -0.5883441, 0.014445558, -0.012260244, 0.05832863, 0
468, 1376216418, 0.12747473, -0.78109187, -0.16561732, -0.5884019, -0.0031439052, -0.007884867, 0.05206871, 0
469, 1376233085, 0.1271624, -0.7811873, -0.16520041, -0.5884599, -0.034867615, -0.01022773, 0.060908318, 0
470, 1376249752, 0.12693745, -0.7812497, -0.1648984, -0.5885105, -0.03269908, 0.012815115, 0.058525085, 0
471, 1376266419, 0.12661447, -0.7813364, -0.16448247, -0.58858114, -0.036972355, 0.0031023598, 0.05843258, 0
472, 1376283086, 0.12614521, -0.78147143, -0.16388094, -0.5886705, 0.05921579, -0.030452859, 0.059381485, 0
473, 1376299753, 0.12580946, -0.78157264, -0.16339031, -0.58874446, 0.05649055, -0.00909776, 0.048819542, 0
474, 1376316420, 0.12544498, -0.7816764, -0.16289617, -0.58882135, 0.0053990115, 0.022905162, 0.06383228, 0
475, 1376333087, 0.12503833, -0.78180003, -0.16239111, -0.58888316, 0.008781224, 0.018102985, 0.06228447, 0
476, 1376349754, 0.12446989, -0.7819785, -0.1617066, -0.58895504, -0.027185308, 0.0033360426, 0.060821533, 0
477, 1376366421, 0.12403388, -0.7821122, -0.16114798, -0.5890225, -0.034150433, -0.0216384, 0.06554127, 0
478, 1376383088, 0.12358549, -0.78223884, -0.16050564, -0.589124, -0.052189704, -0.00135013, 0.06142044, 0
479, 1376399755, 0.123075604, -0.7823888, -0.15986255, -0.5892064, 0.030262243, 0.0125502525, 0.06408787, 0
480, 1376416422, 0.122665405, -0.7825128, -0.15934725, -0.58926696, 0.15989615, -0.008373634, 0.04654312, 0
481, 1376433089, 0.12235013, -0.78262, -0.15895918, -0.58929497, 0.037869632, 0.020242283, 0.050094604, 0
482, 1376449756, 0.12199249, -0.7827314, -0.15850866, -0.5893424, 0.057964955, -0.001482338, 0.051678658, 0
483, 1376466423, 0.12183586, -0.78278655, -0.15827289, -0.58936495, -0.028441703, -0.032976486, 0.06031227, 0
484, 1376483090, 0.12170293, -0.78278977, -0.15778247, -0.5895197, -0.04872722, -0.0790306, 0.052438736, 0
485, 1376499757, 0.121469766, -0.78283614, -0.15721698, -0.5896573, 0.05029441, 0.030648936, 0.07594013, 0
486, 1376516424, 0.121017456, -0.7829594, -0.15660332, -0.58974975, 0.087900594, -0.04813318, 0.0496397, 0
487, 1376533091, 0.12063668, -0.7830643, -0.15601532, -0.58984435, 0.12683032, -0.1003538, 0.051548958, 0
488, 1376549758, 0.12063773, -0.78305864, -0.15587506, -0.58988863, 0.037203606, -0.065621614, 0.066547394, 0
489, 1376566425, 0.12021545, -0.7832837, -0.15633252, -0.5895552, 0.11091149, 0.3330419, 0.08414173, 0
490, 1376583092, 0.120921925, -0.78308254, -0.15711783, -0.5894689, -0.33112624, 0.060433097, 0.024297714, 0
491, 1376599759, 0.12091927, -0.7830823, -0.15712681, -0.5894674, -0.0161935, -0.013661894, 0.06277943, 0
492, 1376616426, 0.12092482, -0.78308797, -0.15717448, -0.58944607, 0.02490292, 0.045400176, 0.06449413, 0
493, 1376633093, 0.12090438, -0.78310156, -0.15714607, -0.5894398, 0.059704684, 0.020522792, 0.049513817, 0
494, 1376649760, 0.12091522, -0.78309494, -0.15713565, -0.5894492, 0.10923486, -0.015886463, 0.042043686, 0
495, 1376666427, 0.12083716, -0.78310585, -0.1570111, -0.5894839, -0.04109836, 0.019858679, 0.0678072, 0
496, 1376683094, 0.12059423, -0.7831683, -0.15669918, -0.58953375, -0.11341472, 0.029217614, 0.07146835, 0
497, 1376699761, 0.12015191, -0.7832893, -0.15607691, -0.58962834, -0.01906412, 0.118319206, 0.047034264, 0
498, 1376716428, 0.11996945, -0.78335005, -0.15583874, -0.5896476, -0.006231569, 0.12034658, 0.0590353, 0
499, 1376733095, 0.12028855, -0.78326386, -0.15624131, -0.5895906, 0.039057326, -0.10917479, 0.063179016, 0
500, 1376749762, 0.12075711, -0.78312093, -0.15682955, -0.5895284, 0.06355242, -0.10901308, 0.070178986, 0
501, 1376766429, 0.12133822, -0.78294706, -0.15760456, -0.5894333, 0.0832126, 0.098663315, 0.058098793, 0
502, 1376783096, 0.12201743, -0.7827501, -0.15854113, -0.5893038, 0.006453713, 0.045745056, 0.044807434, 0
503, 1376799763, 0.12251976, -0.78260493, -0.1591924, -0.58921653, -0.013156084, 0.053865336, 0.053866386, 0
504, 1376816430, 0.122905515, -0.7824988, -0.1596672, -0.58914894, -0.036803924, -0.044029817, 0.06754303, 0
505, 1376833097, 0.123015456, -0.7824696, -0.15981175, -0.58912545, 0.010558012, -0.0099898, 0.06240368, 0
506, 1376849764, 0.1227745, -0.7825456, -0.15952931, -0.5891514, 0.024699662, -0.027047805, 0.06561279, 0
507, 1376866431, 0.122543626, -0.7826137, -0.15920192, -0.58919764, -0.01593027, -0.097436726, 0.058347702, 0
508, 1376883098, 0.12243029, -0.78265464, -0.15902002, -0.5892158, -0.039493956, -0.07747428, 0.06642437, 0
509, 1376899765, 0.12240771, -0.7826659, -0.15896305, -0.58922094, 0.017234316, -0.024261829, 0.05174923, 0
510, 1376916432, 0.12248306, -0.78264827, -0.15904395, -0.58920693, 0.049376637, 0.005650631, 0.06423378, 0
511, 1376933099, 0.12240263, -0.7826814, -0.15886599, -0.58922744, 0.06437873, -0.006295857, 0.047143936, 0
512, 1376949766, 0.1220156, -0.78280056, -0.15833741, -0.58929193, -0.04009965, 0.02654451, 0.06155491, 0
513, 1376966433, 0.12161614, -0.7829256, -0.15781079, -0.58934975, -0.08055052, -0.013461067, 0.06789589, 0
514, 1376983100, 0.12129179, -0.7830221, -0.15739597, -0.5893991, -0.0069003757, 0.0019835657, 0.06063652, 0
515, 1376999767, 0.12098477, -0.7831148, -0.15704894, -0.58943164, 0.095709704, 0.024370791, 0.056045532, 0
516, 1377016434, 0.120641544, -0.78321177, -0.1566138, -0.589489, 0.17269771, -0.021703163, 0.04348564, 0
517, 1377033101, 0.120319895, -0.783266, -0.15603943, -0.5896349, 0.06823767, -0.12663585, 0.04199505, 0
518, 1377049768, 0.120013446, -0.7833311, -0.15495928, -0.5898957, 0.10221196, -0.1354574, 0.07260227, 0
519, 1377066435, 0.12017433, -0.7833166, -0.15366775, -0.59021974, 0.14425549, -0.30640435, 0.030906677, 0
520, 1377083102, 0.12049162, -0.7833639, -0.15219744, -0.5904735, 0.24547444, -0.22447233, 0.10282421, 0
521, 1377099769, 0.12107033, -0.78383654, -0.15052304, -0.5901569, 0.026881792, -0.01937304, 0.15124702, 0
522, 1377116436, 0.12289465, -0.78444004, -0.14754704, -0.5897293, -0.0051533706, 0.20581783, 0.2280178, 0
523, 1377133103, 0.12512301, -0.7850435, -0.14401254, -0.58933145, 0.040166285, 0.37114504, 1.6895819, 0
524, 1377149770, 0.12613869, -0.7866547, -0.14244892, -0.58734286, 0.32229748, 0.35336986, 2.1951656, 0
525, 1377166437, 0.12623364, -0.7892967, -0.14280038, -0.58368134, 0.5270799, 0.04317153, 1.6335678, 0
526, 1377183104, 0.12495425, -0.79149306, -0.14406706, -0.5806633, 0.6538344, -0.42019722, 1.1469002, 0
527, 1377199771, 0.123314075, -0.79262435, -0.14453532, -0.57935303, 0.6825336, -0.74077636, 1.1599998, 0
528, 1377216438, 0.12296729, -0.7936576, -0.14445537, -0.57803065, 0.52954316, -0.76066315, 1.2777014, 0
529, 1377233105, 0.124023624, -0.7948325, -0.1435593, -0.57641137, 0.36284155, -0.8273237, 1.0240984, 0
530, 1377249772, 0.12803923, -0.7962148, -0.14062616, -0.5743451, 0.25833845, -1.0998516, 1.391324, 0
531, 1377266439, 0.13308664, -0.79794645, -0.13701774, -0.57166046, 0.20344572, -0.7780956, 1.4476423, 0
532, 1377283106, 0.13874902, -0.79948467, -0.13296746, -0.56911564, 0.2646289, -0.7551787, 1.5857553, 0
533, 1377299773, 0.14441973, -0.8012824, -0.1296459, -0.56593406, 0.39701444, -0.70551467, 2.0539389, 0
534, 1377316440, 0.14924765, -0.80355513, -0.12786302, -0.56184995, 0.5734152, -0.7014362, 2.1176662, 0
535, 1377333107, 0.15267785, -0.8055793, -0.12707454, -0.5581967, 0.45393866, -0.5959327, 1.5271244, 0
536, 1377349774, 0.15606356, -0.8074544, -0.1259264, -0.55480117, 0.102748476, -0.37127602, 0.68826485, 0
537, 1377366441, 0.1600259, -0.8098427, -0.12505198, -0.5503715, 0.15064482, -0.35020244, 0.43876553, 0
538, 1377383108, 0.16376445, -0.8120865, -0.124510996, -0.54607123, 0.49874887, -0.67930895, 0.4769535, 0
539, 1377399775, 0.16755848, -0.8137971, -0.12423182, -0.5424252, 0.56373787, -0.7000797, 0.74012184, 0
540, 1377416442, 0.17217481, -0.8160149, -0.12418686, -0.53763664, 0.5994137, -0.596823, 0.6272726, 0
541, 1377433109, 0.17755759, -0.8186414, -0.12419836, -0.53185934, 0.6820785, -0.5386719, 0.43088818, 0
542, 1377449776, 0.18296658, -0.8206556, -0.12386342, -0.52697766, 0.7401628, -0.512559, 0.12597275, 0
543, 1377466443, 0.18871729, -0.82214063, -0.122504145, -0.5229373, 0.6603346, -0.32699206, 0.05501175, 0
544, 1377483110, 0.19480926, -0.82384956, -0.12113607, -0.5183121, 0.29607671, -0.1239994, -0.049839973, 0
545, 1377499777, 0.20078519, -0.8260858, -0.12022722, -0.51265305, 0.19550848, 0.044056416, -0.18650723, 0
546, 1377516444, 0.20633608, -0.8285378, -0.120031, -0.5065011, 0.47491875, -0.109354384, -0.28317165, 0
547, 1377533111, 0.21174936, -0.83092076, -0.1200977, -0.5003094, 0.6191997, -0.32047132, -0.16902256, 0
548, 1377549778, 0.21767, -0.83311063, -0.119760305, -0.49416998, 0.5387205, -0.17303523, -0.4094553, 0
549, 1377566445, 0.22357681, -0.83506185, -0.11889306, -0.4884155, 0.6764633, -0.19001675, -0.32840824, 0
550, 1377583112, 0.22934283, -0.8368072, -0.11788971, -0.48296767, 0.85478413, -0.32585618, 0.054753304, 0
551, 1377599779, 0.23489162, -0.83856785, -0.11686072, -0.4774659, 0.8519261, -0.034123275, 0.21185303, 0
552, 1377616446, 0.24021733, -0.8402764, -0.114915445, -0.4722562, 0.7551268, -0.045576975, 0.31198597, 0
553, 1377633113, 0.24540788, -0.84234285, -0.11198388, -0.46657607, 0.71195614, 0.05734851, 0.5634403, 0
554, 1377649780, 0.25019845, -0.84492004, -0.10964304, -0.45988, 0.60241103, 0.22838241, 0.3538885, 0
555, 1377666447, 0.2546832, -0.84761703, -0.10805254, -0.452777, 0.46246156, 0.2266893, 0.05263996, 0
556, 1377683114, 0.25890568, -0.85019004, -0.10734168, -0.445671, 0.2566503, 0.48712504, -0.17403316, 0
557, 1377699781, 0.26286653, -0.8525828, -0.10747243, -0.43869534, -0.17559779, 0.62628776, -0.5317192, 0
558, 1377716448, 0.26667055, -0.854843, -0.107944205, -0.43183157, -0.84091216, 0.8027689, -0.95158195, 0
559, 1377733115, 0.27023447, -0.8569773, -0.107990324, -0.42532495, -1.4785385, 0.91703355, -1.4480257, 0
560, 1377749782, 0.2739369, -0.85910946, -0.107218, -0.4188006, -1.5558081, 0.8462602, -1.4635744, 0
561, 1377766449, 0.2777655, -0.8612753, -0.10639453, -0.41198486, -1.1471534, 0.647505, -1.2000895, 0
562, 1377783116, 0.2811404, -0.8632857, -0.10589954, -0.4055656, -0.801898, 0.5742184, -0.77415276, 0
563, 1377799783, 0.28382134, -0.86510825, -0.10607721, -0.39972618, -0.34262186, 0.3591538, -0.3440199, 0
564, 1377816450, 0.2862352, -0.86684626, -0.10728696, -0.39387396, -0.2340033, 0.25140023, -0.42511654, 0
565, 1377833117, 0.2886187, -0.8686233, -0.10887269, -0.38773692, -0.28810665, 0.35144663, -0.55968094, 0
566, 1377849784, 0.2913938, -0.870477, -0.10952149, -0.3812671, -0.53600013, 0.49177477, -0.59643555, 0
567, 1377866451, 0.29433358, -0.8726372, -0.1086755, -0.37424845, -0.6972601, 0.5596447, -0.47515106, 0
568, 1377883118, 0.29728037, -0.8750812, -0.1065466, -0.36674967, -0.365733, 0.5796042, -0.2812767, 0
569, 1377899785, 0.3000604, -0.8775694, -0.103324115, -0.35938862, -0.12527907, 0.36700627, -0.054760933, 0
570, 1377916452, 0.30215392, -0.88004965, -0.100559615, -0.35228318, 0.155925, 0.6096247, 0.20011425, 0
571, 1377933119, 0.30355865, -0.8821574, -0.099381246, -0.3460837, 0.0935606, 0.46161148, -0.08325958, 0
572, 1377949786, 0.30434445, -0.88395697, -0.09928385, -0.34078914, -0.18626949, 0.24256364, -0.47387886, 0
573, 1377966453, 0.30498224, -0.88549423, -0.09948559, -0.3361374, -0.57230157, 0.4039259, -0.77403736, 0
574, 1377983120, 0.30530387, -0.8868866, -0.09938871, -0.33217975, -0.7553191, 0.42373496, -0.88186836, 0
575, 1377999787, 0.3054323, -0.88824606, -0.09876897, -0.3285953, -0.58566016, 0.29265377, -1.004693, 0
576, 1378016454, 0.30579787, -0.8896374, -0.097954944, -0.32471228, -0.31766844, 0.07303889, -0.9182224, 0
577, 1378033121, 0.3062114, -0.89093816, -0.09733845, -0.3209192, -0.53186226, 0.14434087, -0.9717283, 0
578, 1378049788, 0.30618694, -0.8919304, -0.097345, -0.31817284, -0.7474916, 0.1454886, -1.1011009, 0
579, 1378066455, 0.3060376, -0.892484, -0.097944975, -0.31657565, -1.0030518, 0.14895394, -1.3035507, 0
580, 1378083122, 0.30594558, -0.89269763, -0.09863117, -0.31584844, -1.5205617, 0.26291472, -1.3502216, 0
581, 1378099789, 0.30632114, -0.8927241, -0.098458305, -0.31546322, -1.8953425, 0.3897257, -1.36131, 0
582, 1378116456, 0.3070425, -0.89266026, -0.0972879, -0.31530586, -1.627161, 0.3531708, -1.1172752, 0
583, 1378133123, 0.30755934, -0.8924431, -0.09575244, -0.3158862, -1.0695386, 0.37179145, -0.7647257, 0
584, 1378149790, 0.3080961, -0.8920363, -0.094441384, -0.31690562, -0.6662017, 0.34144846, -0.5284729, 0
585, 1378166457, 0.3084967, -0.8915899, -0.0941016, -0.31787187, -0.5708181, 0.39077038, -0.34839153, 0
586, 1378183124, 0.30844072, -0.8910562, -0.094185375, -0.31939396, -0.7091352, 0.55467355, -0.31520844, 0
587, 1378199791, 0.30823576, -0.8905876, -0.09398617, -0.32095355, -0.8507414, 0.65149, -0.1792717, 0
588, 1378216458, 0.30817914, -0.89017487, -0.093417406, -0.32231605, -1.028142, 0.6560561, -0.22143364, 0
589, 1378233125, 0.3081806, -0.88969415, -0.09285014, -0.32380247, -1.0355967, 0.5908952, -0.30374527, 0
590, 1378249792, 0.30765915, -0.8890553, -0.09271857, -0.32608247, -0.93802106, 0.5188529, -0.3242674, 0
591, 1378266459, 0.3068874, -0.88830537, -0.09255422, -0.32888797, -0.82487077, 0.5294933, -0.25116158, 0
592, 1378283126, 0.30591905, -0.8875842, -0.092405066, -0.33176708, -0.7407062, 0.5345252, -0.23125648, 0
593, 1378299793, 0.30469024, -0.88689214, -0.092288844, -0.334767, -0.6373425, 0.49679554, -0.22960663, 0
594, 1378316460, 0.30313018, -0.8861204, -0.09258917, -0.33812726, -0.6522033, 0.45079726, -0.30547523, 0
595, 1378333127, 0.30142722, -0.8852583, -0.0929791, -0.34178105, -0.8091049, 0.5121656, -0.46685028, 0
596, 1378349794, 0.2997119, -0.884309, -0.09311835, -0.3456871, -0.7686215, 0.5677339, -0.49580002, 0
597, 1378366461, 0.2981188, -0.8833461, -0.09297296, -0.3495441, -0.54269606, 0.5833449, -0.41935062, 0
598, 1378383128, 0.29630494, -0.8823796, -0.09298483, -0.35350195, -0.39184293, 0.5639312, -0.35042286, 0
599, 1378399795, 0.29391798, -0.8813036, -0.09354208, -0.35800308, -0.4345873, 0.6574238, -0.2979517, 0
600, 1378416462, 0.2909516, -0.8800936, -0.0948912, -0.36301273, -0.59756523, 0.7147475, -0.48207474, 0
601, 1378433129, 0.28741822, -0.8787632, -0.096964106, -0.368462, -0.8151344, 0.690744, -0.6817322, 0
602, 1378449796, 0.2833957, -0.8772152, -0.09972813, -0.37447938, -1.0049093, 0.6451087, -0.9873333, 0
603, 1378466463, 0.27892327, -0.87547845, -0.1026639, -0.38105068, -1.0129533, 0.6081911, -1.104804, 0
604, 1378483130, 0.2740364, -0.8736414, -0.10593122, -0.38785747, -0.9270323, 0.54249144, -1.0949373, 0
605, 1378499797, 0.26876417, -0.87172776, -0.10941964, -0.39482164, -0.95551306, 0.5233538, -1.3325968, 0
606, 1378516464, 0.26326635, -0.8696436, -0.112594925, -0.40216088, -0.9547661, 0.47969905, -1.5715609, 0
607, 1378533131, 0.25784048, -0.86745536, -0.11528065, -0.4095726, -0.9189155, 0.37924907, -1.7624693, 0
608, 1378549798, 0.25259188, -0.8651767, -0.11692583, -0.41712743, -0.8748522, 0.4409933, -1.8420262, 0
609, 1378566465, 0.24746509, -0.86265916, -0.11798104, -0.42504185, -0.46004796, 0.30698857, -1.3890829, 0
610, 1378583132, 0.24180998, -0.8599564, -0.11997477, -0.4331389, -0.008947, 0.05838136, -1.0723219, 0
611, 1378599799, 0.2360734, -0.8571496, -0.12213343, -0.44118884, 0.07468398, 0.14164385, -0.94785595, 0
612, 1378616466, 0.23008029, -0.8542614, -0.12399797, -0.44936106, -0.0108682895, 0.020750385, -1.2057648, 0
613, 1378633133, 0.22396377, -0.85136604, -0.12532668, -0.45750368, 0.059246942, -0.0019253406, -1.316206, 0
614, 1378649800, 0.21791421, -0.8482653, -0.12653773, -0.46577656, 0.23326363, -0.056355663, -1.0833883, 0
615, 1378666467, 0.21193254, -0.8449661, -0.12770958, -0.4741385, 0.375943, -0.1376756, -0.94091034, 0
616, 1378683134, 0.20610438, -0.8414686, -0.1292246, -0.48244476, 0.36555666, -0.059698522, -0.7584982, 0
617, 1378699801, 0.20031945, -0.83769864, -0.1309328, -0.49090707, 0.23737912, 0.0404906, -0.8788128, 0
618, 1378716468, 0.19488361, -0.8338445, -0.1319258, -0.4993188, 0.35975462, 0.022584643, -0.7546501, 0
619, 1378733135, 0.18988091, -0.8303468, -0.13283527, -0.50677854, 0.6832732, -0.046308756, -0.23709106, 0
620, 1378749802, 0.18527572, -0.8272219, -0.1337236, -0.5133176, 0.83977634, -0.27333578, -0.17184734, 0
621, 1378766469, 0.1810987, -0.8238314, -0.13367839, -0.5202263, 0.70554364, -0.49587435, -0.16782856, 0
622, 1378783136, 0.17727157, -0.8200125, -0.13304365, -0.5276874, 0.7355348, -0.5868747, 0.09715557, 0
623, 1378799803, 0.17385232, -0.81635505, -0.13217856, -0.53466725, 1.0073702, -0.6944455, 0.61708736, 0
624, 1378816470, 0.17123714, -0.8132108, -0.13094942, -0.54057235, 1.1876147, -0.69404715, 1.3073683, 0
625, 1378833137, 0.16881567, -0.8104025, -0.12955698, -0.5458609, 1.1294234, -0.4807122, 1.5957212, 0
626, 1378849804, 0.16612586, -0.8076907, -0.12795499, -0.5510588, 0.9103418, -0.51732105, 1.5882549, 0
627, 1378866471, 0.16346195, -0.8051482, -0.12618499, -0.5559623, 0.8644996, -0.78034633, 1.5840864, 0
628, 1378883138, 0.16075617, -0.802894, -0.12520328, -0.56021696, 0.9023999, -1.0118221, 1.76371, 0
629, 1378899805, 0.15765591, -0.8005651, -0.12547618, -0.56435436, 0.7960281, -0.9764625, 1.7302618, 0
630, 1378916472, 0.15443079, -0.79821336, -0.1261715, -0.56840783, 0.67583257, -0.85326266, 1.6006155, 0
631, 1378933139, 0.15220767, -0.7960999, -0.12598583, -0.57200146, 0.7047665, -0.72693115, 1.7903185, 0
632, 1378949806, 0.15139247, -0.79442173, -0.12494213, -0.5747731, 0.7055762, -0.62947476, 2.0076132, 0
633, 1378966473, 0.15078402, -0.79330325, -0.12441496, -0.57658947, 0.7495383, -0.7176466, 2.1296968, 0
634, 1378983140, 0.14969121, -0.792806, -0.12512127, -0.57740444, 0.77450657, -0.8115386, 2.04457, 0
635, 1378999807, 0.14831373, -0.7925171, -0.12640184, -0.5778776, 0.54671437, -0.6193094, 1.7251444, 0
636, 1379016474, 0.14676687, -0.7919327, -0.1271502, -0.5789085, 0.255678, -0.27698296, 1.3880386, 0
637, 1379033141, 0.14507279, -0.79084975, -0.1273514, -0.58076864, 0.07123037, -0.06156653, 1.333271, 0
638, 1379049808, 0.1429599, -0.7895081, -0.12757, -0.5830656, -0.00971541, 0.046032716, 1.1695147, 0
639, 1379066475, 0.14075601, -0.78832144, -0.12784679, -0.5851429, -0.057177477, 0.14373615, 0.93022346, 0
640, 1379083142, 0.13880092, -0.78766996, -0.12806925, -0.5864372, -0.10836576, 0.33974996, 0.74299335, 0
641, 1379099809, 0.13671048, -0.78721714, -0.12813547, -0.5875208, -0.2162332, 0.54790443, 0.37500858, 0
642, 1379116476, 0.13432322, -0.7866973, -0.1277676, -0.58884627, -0.2336218, 0.5890642, 0.030563354, 0
643, 1379133143, 0.13171378, -0.7861082, -0.12738618, -0.59030354, -0.07792383, 0.30426523, -0.14340878, 0
644, 1379149810, 0.12816316, -0.78575504, -0.12808014, -0.5914042, 0.06633123, 0.039505355, -0.10988617, 0
645, 1379166477, 0.12425505, -0.7852485, -0.12929496, -0.5926453, 0.20017287, -0.20999953, -0.00921154, 0
646, 1379183144, 0.121191256, -0.7841933, -0.12925339, -0.5946826, 0.24881725, -0.33162874, 0.4687519, 0
647, 1379199811, 0.119906776, -0.78308773, -0.1278151, -0.59670717, 0.21187434, -0.43057016, 0.9559622, 0
648, 1379216478, 0.120007895, -0.78258127, -0.1258442, -0.59776914, 0.1258928, -0.5002947, 1.2371597, 0
649, 1379233145, 0.120919906, -0.78239644, -0.12368551, -0.5982776, 0.16763017, -0.52533233, 0.8303051, 0
650, 1379249812, 0.122241296, -0.78195256, -0.121693395, -0.5989976, 0.09026433, -0.4174449, 0.41266918, 0
651, 1379266479, 0.12344701, -0.78138775, -0.12005876, -0.5998168, -0.07587504, -0.10870184, -0.014489174, 0
652, 1379283146, 0.124111764, -0.7809315, -0.118910514, -0.6005019, -0.124856405, 0.25962645, -0.331151, 0
653, 1379299813, 0.1232758, -0.780339, -0.11848437, -0.6015278, 0.28629494, 1.0142636, 1.5548096, 0
654, 1379316480, 0.11956677, -0.7807541, -0.12179968, -0.6010757, 0.13940072, -0.47227618, -0.03896141, 0
655, 1379333147, 0.11557949, -0.7804408, -0.12387141, -0.6018384, 0.12105801, 0.43138582, 0.05621338, 0
656, 1379349814, 0.1120888, -0.7800274, -0.12522306, -0.6027543, 0.3016428, -0.0052666357, 0.030082703, 0
657, 1379366481, 0.11025483, -0.7797359, -0.12555839, -0.60339946, 0.08598983, 0.18151364, 0.09573269, 0
658, 1379383148, 0.10921604, -0.7797794, -0.12578776, -0.6034846, 0.043300398, -0.07046894, -0.027253151, 0
659, 1379399815, 0.10872523, -0.78026867, -0.1266128, -0.6027678, 0.0017308214, -0.29840168, -0.0050754547, 0
660, 1379416482, 0.10809343, -0.78085965, -0.1277464, -0.6018763, -0.043091197, -0.3552642, 0.0076704025, 0
661, 1379433149, 0.107833564, -0.78158456, -0.12895025, -0.600724, -0.059212297, -0.100606084, 0.024025917, 0
662, 1379449816, 0.10748513, -0.78242666, -0.1308284, -0.5992825, -0.0985711, 0.02239639, 0.015749931, 0
663, 1379466483, 0.10725163, -0.7840147, -0.13363975, -0.59662265, -0.05273675, 0.0494048, -0.15367413, 0
664, 1379483150, 0.107521966, -0.7858381, -0.13723274, -0.5933507, 0.0057289163, 7.9905885E-6, 0.2108326, 0
665, 1379499817, 0.10824715, -0.7859395, -0.13982794, -0.5924778, 0.21068713, -0.002189924, 0.32910442, 0
666, 1379516484, 0.1093852, -0.78577405, -0.14130603, -0.5921377, 0.028602421, -0.059485793, 8.049011E-4, 0
667, 1379533151, 0.110460356, -0.7857069, -0.14290936, -0.591642, 0.0494295, 0.11870583, 0.036331177, 0
668, 1379549818, 0.1116699, -0.7856401, -0.14420527, -0.591189, 0.13279456, -0.029250916, 0.055415154, 0
669, 1379566485, 0.11250459, -0.7854979, -0.14550212, -0.59090203, 0.24061394, -0.07918014, 0.07554245, 0
670, 1379583152, 0.113236584, -0.7853304, -0.14671661, -0.59068435, 0.099218994, 0.014746994, 0.06328964, 0
671, 1379599819, 0.11400754, -0.78515005, -0.14791577, -0.5904768, 0.047315724, -0.06959417, 0.045622826, 0
672, 1379616486, 0.1147551, -0.7849535, -0.1489255, -0.5903395, -0.0050547593, -0.028302552, 0.06327534, 0
673, 1379633153, 0.1152935, -0.7847988, -0.1496337, -0.5902609, -0.015686292, -0.051768675, 0.06416321, 0
674, 1379649820, 0.115937166, -0.7846175, -0.15042031, -0.590176, 0.0019252289, 0.029190289, 0.05322361, 0
675, 1379666487, 0.11641361, -0.784491, -0.150996, -0.59010327, -0.054872096, -0.061546583, 0.07960987, 0
676, 1379683154, 0.11664637, -0.78442895, -0.15128057, -0.5900669, 0.017908962, -0.029869266, 0.054371834, 0
677, 1379699821, 0.11682084, -0.78439116, -0.1514827, -0.5900308, 0.023943476, -0.016471228, 0.06195736, 0
678, 1379716488, 0.116878875, -0.7843753, -0.15154748, -0.5900237, -0.003864078, -0.02536967, 0.04831028, 0
679, 1379733155, 0.11688907, -0.7843743, -0.15156065, -0.5900199, 0.017600387, 0.004986015, 0.05194187, 0
680, 1379749822, 0.116886385, -0.78437537, -0.15153864, -0.59002465, 0.004323537, 0.008380394, 0.064813614, 0
681, 1379766489, 0.116896555, -0.78437686, -0.15152526, -0.5900241, 0.011992881, 0.0029465153, 0.05437565, 0
682, 1379783156, 0.11689002, -0.7843828, -0.1515261, -0.5900172, 0.014089656, -0.0030778293, 0.07024193, 0
683, 1379799823, 0.11689546, -0.7843802, -0.15153196, -0.5900181, 0.002221258, -0.013918823, 0.06022072, 0
684, 1379816490, 0.11689835, -0.78437805, -0.1515396, -0.59001845, 0.019671962, -0.012304779, 0.06795788, 0
685, 1379833157, 0.11689738, -0.78437555, -0.1515441, -0.5900209, 0.013468681, -0.012367363, 0.040239334, 0
686, 1379849824, 0.116908096, -0.7843792, -0.15154645, -0.590013, 0.016359948, -0.020712554, 0.05885601, 0
687, 1379866491, 0.11690817, -0.7843779, -0.15154742, -0.59001446, 0.002845725, -0.0058436343, 0.053943634, 0
688, 1379883158, 0.116925746, -0.78437877, -0.15153275, -0.59001374, 0.006920492, -0.011086857, 0.056732178, 0
689, 1379899825, 0.11692681, -0.78438395, -0.15151753, -0.5900105, 0.02401338, 0.0024865258, 0.056227684, 0
690, 1379916492, 0.11696467, -0.7843819, -0.15154001, -0.5899999, 0.06083123, 0.013186985, 0.058009148, 0
691, 1379933159, 0.11701004, -0.78437465, -0.15160753, -0.5899834, 0.043268993, 0.005576369, 0.04517269, 0
692, 1379949826, 0.1170605, -0.7843693, -0.15165924, -0.58996713, 0.027647212, 0.018014083, 0.05622959, 0
693, 1379966493, 0.1170425, -0.78437483, -0.15163124, -0.5899706, -0.021066487, -0.014818238, 0.051374435, 0
694, 1379983160, 0.1170231, -0.78438145, -0.15157554, -0.58997977, -0.010282015, -0.00806608, 0.055788994, 0
695, 1379999827, 0.11704256, -0.78437436, -0.15154904, -0.5899922, 0.0043897945, -0.014114228, 0.062376022, 0
696, 1380016494, 0.11706505, -0.78436446, -0.15152815, -0.5900064, 0.02751907, -0.010306126, 0.059731483, 0
697, 1380033161, 0.117075786, -0.7843613, -0.15151441, -0.59001184, 0.0021888064, -0.010787853, 0.054283142, 0
698, 1380049828, 0.11707972, -0.78436035, -0.15151319, -0.5900127, 0.01659701, 0.0024651245, 0.06264019, 0
699, 1380066495, 0.11708298, -0.7843608, -0.15150346, -0.59001404, 0.016135428, -0.010137933, 0.05496216, 0
700, 1380083162, 0.117093325, -0.78436506, -0.15148164, -0.59001195, 0.018457994, 0.008623577, 0.061203957, 0
701, 1380099829, 0.11686396, -0.78443444, -0.15109912, -0.59006315, 0.015037016, 0.02546796, 0.051966667, 0
702, 1380116496, 0.11625137, -0.78461355, -0.15018122, -0.5901805, 0.094916455, -0.012682963, 0.047189713, 0
703, 1380133163, 0.11566252, -0.7847678, -0.14916259, -0.59034944, 0.12355634, -0.08122695, 0.054514885, 0
704, 1380149830, 0.11529166, -0.7848434, -0.14829043, -0.5905411, 0.08603149, -0.019716078, 0.057642937, 0
705, 1380166497, 0.11519964, -0.78486085, -0.14740536, -0.59075755, -0.021113481, -0.22136097, 0.06983566, 0
706, 1380183164, 0.115393125, -0.78495705, -0.1460086, -0.59093887, 0.2162722, -0.26656836, 0.09596348, 0
707, 1380199831, 0.117592685, -0.785524, -0.1436845, -0.5903211, 0.2519816, -0.5273333, 0.2527609, 0
708, 1380216498, 0.122181244, -0.7864276, -0.14019535, -0.58902335, 0.30019337, -0.031781867, 1.6805143, 0
709, 1380233165, 0.12431599, -0.78748703, -0.13886793, -0.58747375, 0.33588383, 0.018173167, 3.1728668, 0
710, 1380249832, 0.12437285, -0.7892468, -0.13939703, -0.5849698, 0.47234014, -0.38742495, 3.0995083, 0
711, 1380266499, 0.12502372, -0.7912948, -0.1396104, -0.5820057, 0.49421698, -0.60366875, 3.0059175, 0
712, 1380283166, 0.12793331, -0.79354554, -0.1381309, -0.5786523, 0.4499046, -0.92151016, 3.3175669, 0
713, 1380299833, 0.13273188, -0.7963826, -0.13432302, -0.5745558, 0.78098327, -0.6874398, 4.008507, 0
714, 1380316500, 0.13966602, -0.8002945, -0.12922658, -0.5686149, 1.1353794, -0.9340336, 4.788021, 0
715, 1380333167, 0.14700483, -0.805606, -0.12452389, -0.5602522, 1.6071885, -1.357432, 5.114071, 0
716, 1380349834, 0.15371893, -0.8115541, -0.12087104, -0.55058247, 1.7481668, -1.4046193, 4.66792, 0
717, 1380366501, 0.15910384, -0.81748724, -0.11880434, -0.54063505, 1.6407294, -1.2044874, 3.5772228, 0
718, 1380383168, 0.1632524, -0.82297117, -0.11799554, -0.53117275, 1.2818894, -1.126192, 2.301423, 0
719, 1380399835, 0.16756871, -0.82824177, -0.11721972, -0.5217243, 0.97831064, -1.0428352, 0.95191765, 0
720, 1380416502, 0.17408751, -0.8337486, -0.11453056, -0.5113119, 1.0469548, -1.1481628, 0.40927982, 0
721, 1380433169, 0.18339463, -0.83951586, -0.109793834, -0.49952495, 1.478111, -1.2960099, 0.47894478, 0
722, 1380449836, 0.19446474, -0.8453667, -0.10325876, -0.48669934, 1.555281, -1.3351043, 0.6198683, 0
723, 1380466503, 0.20563199, -0.851053, -0.09648811, -0.47340736, 1.3289505, -0.8261294, -0.006155014, 0
724, 1380483170, 0.21583903, -0.8564427, -0.09049229, -0.460142, 0.97792965, -0.4087006, -0.67040825, 0
725, 1380499837, 0.22476095, -0.86136216, -0.08599797, -0.4473726, 0.63325423, -0.08498532, -1.3686762, 0
726, 1380516504, 0.23287624, -0.86562747, -0.08260642, -0.43546999, 0.29450047, 0.26232946, -1.8379145, 0
727, 1380533171, 0.24017006, -0.8694149, -0.080733165, -0.42416802, -0.13063723, 0.59363765, -2.1566715, 0
728, 1380549838, 0.24677832, -0.87290275, -0.0798039, -0.41324654, -0.56186527, 0.88577926, -2.5035467, 0
729, 1380566505, 0.2531363, -0.8760219, -0.07866621, -0.4028889, -0.8263135, 0.9654073, -2.7285414, 0
730, 1380583172, 0.25919208, -0.87869745, -0.07707447, -0.39340824, -1.0692914, 0.93529576, -2.7731247, 0
731, 1380599839, 0.2648308, -0.8809795, -0.075347885, -0.38478893, -1.2133542, 0.8579797, -2.8574662, 0
732, 1380616506, 0.2701707, -0.8829365, -0.073421106, -0.37688223, -0.92393106, 0.6490413, -2.5950646, 0
733, 1380633173, 0.27507395, -0.88459516, -0.07155004, -0.36973825, -0.9076288, 0.617107, -2.2284884, 0
734, 1380649840, 0.27944845, -0.8860969, -0.06959709, -0.36317676, -1.1603351, 0.87040055, -2.1765919, 0
735, 1380666507, 0.28331327, -0.88728255, -0.06806965, -0.35753363, -1.0585536, 0.92989, -2.0635338, 0
736, 1380683174, 0.28728345, -0.88815314, -0.06680146, -0.35240573, -1.0325261, 0.6378966, -1.9649262, 0
737, 1380699841, 0.29089653, -0.8888568, -0.06593126, -0.34780186, -1.0185134, 0.60962486, -1.6497345, 0
738, 1380716508, 0.293927, -0.88941354, -0.06515835, -0.34395492, -0.9546326, 0.61663043, -1.571887, 0
739, 1380733175, 0.296726, -0.8898354, -0.064131215, -0.34063777, -0.74503803, 0.47007814, -1.2119713, 0
740, 1380749842, 0.2991685, -0.8902404, -0.063337155, -0.33757773, -0.64983207, 0.4889299, -0.9663086, 0
741, 1380766509, 0.30096465, -0.89066434, -0.06304643, -0.3349069, -0.6914769, 0.54329896, -0.7460556, 0
742, 1380783176, 0.3024268, -0.890973, -0.0630741, -0.33275667, -0.8182194, 0.54031444, -0.800477, 0
743, 1380799843, 0.30360195, -0.891144, -0.06333361, -0.33117568, -0.7601917, 0.5514856, -0.7167759, 0
744, 1380816510, 0.30469912, -0.8911897, -0.063631855, -0.3299856, -0.7546858, 0.64079195, -0.6160984, 0
745, 1380833177, 0.30568027, -0.8912768, -0.06357134, -0.32885268, -0.67601836, 0.7696872, -0.4029274, 0
746, 1380849844, 0.3063144, -0.8914463, -0.06293875, -0.32792374, -0.42913833, 0.6363879, -0.2466526, 0
747, 1380866511, 0.30692694, -0.8917618, -0.061991353, -0.32667127, -0.23516524, 0.49600005, -0.09603405, 0
748, 1380883178, 0.30743504, -0.8922119, -0.061245475, -0.32510087, -0.40383112, 0.49458164, -0.09214306, 0
749, 1380899845, 0.30785605, -0.8926794, -0.060655467, -0.3235259, -0.7338229, 0.50909793, -0.31562805, 0
750, 1380916512, 0.30810237, -0.89299506, -0.060209576, -0.3225021, -0.8634095, 0.46756586, -0.5136566, 0
751, 1380933179, 0.30806655, -0.8930825, -0.060144827, -0.32230642, -0.89139384, 0.407695, -0.52593327, 0
752, 1380949846, 0.30770937, -0.89301914, -0.060355112, -0.32278344, -0.6826395, 0.33486912, -0.4491558, 0
753, 1380966513, 0.30721158, -0.8928696, -0.0604829, -0.32364652, -0.5762439, 0.33975825, -0.2340622, 0
754, 1380983180, 0.30696636, -0.8927801, -0.060503908, -0.3241215, -0.55524576, 0.37214997, -0.23366833, 0
755, 1380999847, 0.3067063, -0.8927224, -0.06043062, -0.32454, -0.45295188, 0.34699807, -0.29531574, 0
756, 1381016514, 0.306174, -0.89263076, -0.06036101, -0.32530695, -0.57261777, 0.4057062, -0.3398676, 0
757, 1381033181, 0.30547673, -0.8924992, -0.06052491, -0.32629105, -0.70626193, 0.49161005, -0.37986755, 0
758, 1381049848, 0.30452058, -0.8922333, -0.060836032, -0.32785058, -0.7417704, 0.46169195, -0.49133778, 0
759, 1381066515, 0.30328205, -0.8918074, -0.061335124, -0.33005732, -0.7570742, 0.4289236, -0.527441, 0
760, 1381083182, 0.30185127, -0.8912754, -0.062071476, -0.3326581, -0.8165217, 0.5011232, -0.5683718, 0
761, 1381099849, 0.30019382, -0.8906225, -0.06304512, -0.33570945, -0.8594076, 0.5353234, -0.6221342, 0
762, 1381116516, 0.29823244, -0.88982314, -0.06430671, -0.33931845, -0.88979703, 0.5560287, -0.7071991, 0
763, 1381133183, 0.29586905, -0.8889424, -0.065841846, -0.34337708, -0.88171303, 0.6935862, -0.70227337, 0
764, 1381149850, 0.29313564, -0.88793164, -0.06762726, -0.3479594, -0.910078, 0.78187716, -0.78936386, 0
765, 1381166517, 0.29003268, -0.8868009, -0.06962253, -0.35301307, -0.87760746, 0.7712822, -0.84249306, 0
766, 1381183184, 0.2864946, -0.88550645, -0.07198659, -0.35863248, -0.88283694, 0.83161974, -0.9527445, 0
767, 1381199851, 0.28238198, -0.88405454, -0.074819915, -0.36484253, -0.936425, 0.911554, -1.0641727, 0
768, 1381216518, 0.27756825, -0.88245153, -0.07814754, -0.37165645, -1.091623, 0.94585073, -1.286397, 0
769, 1381233185, 0.2722672, -0.8806043, -0.08175968, -0.37910694, -1.1391832, 0.98778766, -1.6369944, 0
770, 1381249852, 0.26650545, -0.8784424, -0.08509196, -0.3873932, -1.0771627, 0.900337, -1.8190169, 0
771, 1381266519, 0.26075095, -0.8759804, -0.08749767, -0.39624694, -1.0753465, 0.96677667, -1.8850827, 0
772, 1381283186, 0.25503334, -0.8733398, -0.08874775, -0.40541297, -0.9723513, 0.95056397, -1.771059, 0
773, 1381299853, 0.24912368, -0.87059706, -0.08962118, -0.41468826, -0.72444224, 0.7689507, -1.6944256, 0
774, 1381316520, 0.24268025, -0.8677009, -0.09065379, -0.42424494, -0.40281832, 0.4942675, -1.6023779, 0
775, 1381333187, 0.23553684, -0.86447453, -0.09275552, -0.43428403, -0.14734168, 0.25062943, -1.6655807, 0
776, 1381349854, 0.22749722, -0.8607678, -0.09624447, -0.44504055, -6.331004E-5, 0.10527013, -1.8282866, 0
777, 1381366521, 0.21898267, -0.8567046, -0.10022001, -0.45613584, 0.19497234, 0.1025977, -1.8259735, 0
778, 1381383188, 0.20993152, -0.85240585, -0.103969984, -0.46746483, 0.21807885, 0.1712021, -1.3320026, 0
779, 1381399855, 0.20016886, -0.8481162, -0.107384205, -0.47864404, 0.25275478, 0.13480088, -0.8173723, 0
780, 1381416522, 0.19005816, -0.8441271, -0.11040809, -0.4890167, 0.28871554, -0.046325408, -0.45006657, 0
781, 1381433189, 0.18031397, -0.8403822, -0.11268283, -0.49854508, 0.2991775, -0.19449382, -0.5069132, 0
782, 1381449856, 0.17136085, -0.83671075, -0.113882974, -0.50752467, 0.2988187, -0.270197, -0.69672966, 0
783, 1381466523, 0.16321954, -0.83282715, -0.11376088, -0.5165432, 0.39379328, -0.35447055, -0.6080055, 0
784, 1381483190, 0.15577184, -0.8283704, -0.11207468, -0.52628624, 0.6953364, -0.6236414, -0.2610016, 0
785, 1381499857, 0.1489252, -0.8235017, -0.10978481, -0.5362962, 1.052465, -0.9635333, 0.6559229, 0
786, 1381516524, 0.14268428, -0.81871325, -0.10748721, -0.54570735, 1.3402808, -1.0909812, 1.341712, 0
787, 1381533191, 0.13771078, -0.81428385, -0.10482287, -0.5540667, 1.3933883, -1.0930282, 1.9712162, 0
788, 1381549858, 0.13388793, -0.8104291, -0.101773374, -0.56117857, 1.4842074, -1.1126261, 2.4069023, 0
789, 1381566525, 0.1308392, -0.80731267, -0.09866084, -0.56691575, 1.467946, -1.3043175, 3.137107, 0
790, 1381583192, 0.12758371, -0.80465305, -0.0965351, -0.571784, 1.3259231, -1.21969, 3.0776262, 0
791, 1381599859, 0.12363614, -0.8020586, -0.095821016, -0.57639784, 1.036928, -1.1053404, 2.4618034, 0
792, 1381616526, 0.119645566, -0.7992564, -0.096301846, -0.5810337, 0.8409684, -0.9970845, 2.062066, 0
793, 1381633193, 0.11612999, -0.7964497, -0.09740685, -0.5854002, 0.68312573, -0.93651867, 2.0125608, 0
794, 1381649860, 0.11373888, -0.7939637, -0.09846062, -0.5890591, 0.5173862, -0.7933216, 2.0610733, 0
795, 1381666527, 0.1125196, -0.79219264, -0.099468276, -0.59150344, 0.4925884, -0.6410261, 1.9937572, 0
796, 1381683194, 0.11189095, -0.7906767, -0.100275844, -0.5935115, 0.42603567, -0.53985053, 1.8125868, 0
797, 1381699861, 0.1111132, -0.78895974, -0.10122219, -0.59577733, 0.34579325, -0.48469403, 1.3497562, 0
798, 1381716528, 0.1102388, -0.7870788, -0.102610454, -0.59818524, 0.23000243, -0.3933799, 0.9670763, 0
799, 1381733195, 0.10941262, -0.78534865, -0.10422151, -0.6003287, 0.0439093, -0.33496267, 0.7516651, 0
800, 1381749862, 0.108339794, -0.78386354, -0.106046535, -0.6021419, -0.010623906, -0.123131335, 0.47979164, 0
801, 1381766529, 0.10698282, -0.7824875, -0.10805943, -0.6038141, -0.02503111, -0.05792182, 0.10769272, 0
802, 1381783196, 0.105705924, -0.7813849, -0.11013576, -0.6050901, 0.040533446, -0.040119905, -0.09528732, 0
803, 1381799863, 0.104809225, -0.7805964, -0.111929975, -0.60593426, 0.031168902, 0.036522686, -0.08388996, 0
804, 1381816530, 0.10404684, -0.77986664, -0.11361642, -0.6066907, 0.08433834, 0.0579297, -0.040930748, 0
805, 1381833197, 0.103457294, -0.77926695, -0.11564716, -0.6071784, 0.1322493, -0.0446594, 0.08260536, 0
806, 1381849864, 0.10281705, -0.7786237, -0.11794032, -0.6076711, 0.1921375, 0.041098278, 0.14505482, 0
807, 1381866531, 0.10228665, -0.77779627, -0.119806044, -0.6084547, 0.12695657, 0.19799605, 0.19427681, 0
808, 1381883198, 0.1018459, -0.7768914, -0.12102533, -0.6094424, 0.040345542, 0.27621967, 0.23719311, 0
809, 1381899865, 0.101242475, -0.77584946, -0.121753424, -0.6107241, 0.011688847, 0.25486153, 0.082407, 0
810, 1381916532, 0.10068717, -0.774608, -0.12224066, -0.6122924, -0.020038314, 0.12258691, -0.072322845, 0
811, 1381933199, 0.10033255, -0.77346057, -0.1227853, -0.6136906, 0.046343803, 0.082273275, -0.052905083, 0
812, 1381949866, 0.100381546, -0.7723702, -0.12293119, -0.61502504, 0.09280034, 0.046372455, 0.058412552, 0
813, 1381966533, 0.1013484, -0.77131855, -0.12206959, -0.6163566, 0.1343212, -0.026243271, 0.36557102, 0
814, 1381983200, 0.10297574, -0.770591, -0.120569594, -0.61729145, 0.16251077, -0.17787418, 0.87135124, 0
815, 1381999867, 0.104326986, -0.77018845, -0.1191099, -0.6178499, 0.15463643, -0.2610315, 1.2810726, 0
816, 1382016534, 0.10548815, -0.76983345, -0.117889725, -0.61832917, 0.17053641, -0.2880294, 1.0463543, 0
817, 1382033201, 0.106673546, -0.769489, -0.11681557, -0.61875814, 0.07270316, -0.23397028, 0.6965208, 0
818, 1382049868, 0.1080042, -0.76925373, -0.11596173, -0.6189806, 0.0035820885, -0.048458334, 0.30263615, 0
819, 1382066535, 0.10906897, -0.7690803, -0.115669884, -0.619064, -0.019513324, 0.14483298, -0.078183174, 0
820, 1382083202, 0.109545924, -0.7693323, -0.11619704, -0.6185675, 0.2563777, 0.41122288, 1.0632076, 0
821, 1382099869, 0.109499544, -0.7705805, -0.118074134, -0.6166638, -0.15239835, 0.23005345, -0.27529144, 0
822, 1382116536, 0.10882657, -0.7713909, -0.11947678, -0.6154984, 0.07265633, 0.29222742, 0.28983974, 0
823, 1382133203, 0.108147405, -0.77194566, -0.120675005, -0.61468816, 0.16089168, 0.040277258, -0.023827553, 0
824, 1382149870, 0.1075685, -0.77267075, -0.12207556, -0.6136013, 0.13976032, 0.046059426, 0.026008606, 0
825, 1382166537, 0.10689193, -0.77328753, -0.12374419, -0.6126076, 0.17726508, -0.17560647, 0.093297005, 0
826, 1382183204, 0.105964355, -0.7738285, -0.12534365, -0.6117599, 0.12470564, -0.11338751, 0.045189857, 0
827, 1382199871, 0.10577313, -0.7746232, -0.12722705, -0.61039674, 0.17511983, 0.026758859, -0.11781788, 0
828, 1382216538, 0.10672418, -0.7761297, -0.12941189, -0.6078529, 0.030327244, -0.009025398, -0.18607235, 0
829, 1382233205, 0.10837143, -0.7785532, -0.13157873, -0.60398483, 0.08169812, 0.037480105, -0.13119316, 0
830, 1382249872, 0.10984497, -0.7811764, -0.13422783, -0.5997337, -0.08265103, 0.07740002, 0.30302906, 0
831, 1382266539, 0.109810255, -0.7829336, -0.13674283, -0.59687346, 0.109663576, -0.1888066, 0.15775585, 0
832, 1382283206, 0.10990787, -0.7841166, -0.13891147, -0.5947985, 0.07912301, -0.01034647, 0.1307087, 0
833, 1382299873, 0.110970624, -0.78506476, -0.14040893, -0.59299606, 0.04524609, -0.16722228, 0.047857285, 0
834, 1382316540, 0.111493535, -0.7853492, -0.14116211, -0.59234214, -0.08273459, -0.119162075, 0.27600193, 0
835, 1382333207, 0.11174275, -0.785318, -0.141444, -0.59226924, 0.042323813, -0.030848308, 0.06842232, 0
836, 1382349874, 0.11195256, -0.7852948, -0.14165893, -0.59220904, 0.019982897, -0.003031171, 0.060228348, 0
837, 1382366541, 0.112063795, -0.7852788, -0.1418531, -0.59216285, 0.035831627, 0.017836781, 0.061291695, 0
838, 1382383208, 0.11202543, -0.78529227, -0.14198953, -0.59211934, 0.036968373, 0.013412062, 0.057595253, 0
839, 1382399875, 0.111917526, -0.7853125, -0.14215398, -0.59207356, 0.03814898, 0.0152393365, 0.053691864, 0
840, 1382416542, 0.11172662, -0.7853495, -0.14236942, -0.59200895, 0.020224094, 0.005742942, 0.0682106, 0
841, 1382433209, 0.11156648, -0.78538644, -0.14255853, -0.5919446, 0.032125615, -0.04767816, 0.048194885, 0
842, 1382449876, 0.111594535, -0.7853879, -0.14269692, -0.5919038, 0.019005166, -0.03423766, 0.057084084, 0
843, 1382466543, 0.11166691, -0.78537554, -0.14293092, -0.5918502, 0.0452717, 0.003783348, 0.06575489, 0
844, 1382483210, 0.11166251, -0.7853714, -0.14316602, -0.59179956, 0.023945669, -3.2811702E-4, 0.06250477, 0
845, 1382499877, 0.111555316, -0.78539354, -0.14340982, -0.59173155, 0.013655356, 0.010685596, 0.074611664, 0
846, 1382516544, 0.11143477, -0.785418, -0.14362188, -0.59167033, 0.02203895, -0.02239896, 0.04555607, 0
847, 1382533211, 0.11143336, -0.78542036, -0.14366244, -0.59165764, 0.03222417, -0.044251822, 0.052493095, 0
848, 1382549878, 0.111438826, -0.7854258, -0.14365484, -0.59165126, 0.009346614, -0.012117811, 0.057149887, 0
849, 1382566545, 0.11147037, -0.78542334, -0.14361085, -0.5916591, 0.01702807, 0.0013852774, 0.06844139, 0
850, 1382583212, 0.11145581, -0.78542435, -0.1436115, -0.5916603, 0.026090303, 0.009828423, 0.058000565, 0
851, 1382599879, 0.11139951, -0.78544056, -0.14365269, -0.5916394, 0.032401137, -2.3999704E-4, 0.07779312, 0
852, 1382616546, 0.111381434, -0.7854483, -0.14366446, -0.5916297, 0.015643993, -0.016367016, 0.05735016, 0
853, 1382633213, 0.11135035, -0.78546053, -0.14370269, -0.5916101, 0.028998207, -0.0045237904, 0.04182911, 0
854, 1382649880, 0.111327246, -0.78547335, -0.14373589, -0.59158933, 0.0156033, -0.019756757, 0.047159195, 0
855, 1382666547, 0.11131849, -0.7854808, -0.14376038, -0.5915751, 0.012498537, -0.008018415, 0.06441498, 0
856, 1382683214, 0.11133131, -0.7854833, -0.14376003, -0.5915694, 0.022907298, -0.013750461, 0.056105614, 0
857, 1382699881, 0.11134514, -0.7854915, -0.1437687, -0.59155387, 0.024056, -0.0015686139, 0.06432724, 0
858, 1382716548, 0.111366056, -0.7854911, -0.14382556, -0.5915367, 0.022420809, -9.0427755E-4, 0.05403614, 0
859, 1382733215, 0.11143311, -0.7854865, -0.14392315, -0.5915065, 0.04846388, -0.003556091, 0.07171917, 0
860, 1382749882, 0.11151136, -0.7854838, -0.14402522, -0.5914706, 0.023951747, -0.0069537675, 0.05338192, 0
861, 1382766549, 0.11156909, -0.7854804, -0.14406894, -0.59145325, 0.01667408, -0.013063103, 0.052536964, 0
862, 1382783216, 0.11160635, -0.7854766, -0.14408533, -0.59144723, 0.021037165, 0.003107836, 0.04867077, 0
863, 1382799883, 0.11163035, -0.7854714, -0.14408153, -0.59145063, 0.03929601, -0.0027542943, 0.05743885, 0
864, 1382816550, 0.11162868, -0.78547555, -0.14410494, -0.5914398, 0.022205453, 0.012075399, 0.04714489, 0
865, 1382833217, 0.11160765, -0.7854845, -0.14413945, -0.5914235, 0.024050148, -0.012858868, 0.06637764, 0
866, 1382849884, 0.11161028, -0.78548694, -0.14417933, -0.5914101, 0.017307196, -0.0034418202, 0.06317043, 0
867, 1382866551, 0.111611634, -0.78549063, -0.14418381, -0.5914039, 0.020022262, -0.023026919, 0.06732464, 0
868, 1382883218, 0.11164104, -0.78549075, -0.14415403, -0.5914052, 0.037872594, 0.005152141, 0.06550884, 0
869, 1382899885, 0.111687414, -0.7854848, -0.14407009, -0.5914248, 0.04202327, -0.016556835, 0.05139637, 0
870, 1382916552, 0.11165743, -0.78550947, -0.14373587, -0.59147894, 0.055945866, -0.041230876, 0.051462173, 0
871, 1382933219, 0.111634724, -0.7855414, -0.14302263, -0.5916141, 0.09925717, -0.069477886, 0.04082775, 0
872, 1382949886, 0.111833535, -0.7855517, -0.14181009, -0.5918545, 0.19053929, -0.13981831, 0.04657173, 0
873, 1382966553, 0.111756906, -0.78572357, -0.14031395, -0.59199744, 0.233554, -0.06493465, 0.10488701, 0
874, 1382983220, 0.111983694, -0.7862639, -0.13791761, -0.59180045, 0.098038666, -0.43175474, 0.2220316, 0
875, 1382999887, 0.11527441, -0.7869212, -0.13401382, -0.5911915, -0.04726018, -0.3923658, 0.2604618, 0
876, 1383016554, 0.11828048, -0.7872114, -0.12991914, -0.5911255, -0.27154785, -0.33373284, 1.8658133, 0
877, 1383033221, 0.1188392, -0.78815454, -0.12851907, -0.5900617, 0.4616116, -0.70584565, 2.774085, 0
878, 1383049888, 0.11792394, -0.7898404, -0.13023236, -0.5876101, 0.8225326, -1.045054, 3.4773388, 0
879, 1383066555, 0.11584124, -0.79161227, -0.13331595, -0.58494246, 0.99602014, -0.9904078, 3.7334309, 0
880, 1383083222, 0.11428756, -0.793457, -0.13670298, -0.5819594, 0.9937738, -1.2742882, 4.1456585, 0
881, 1383099889, 0.11273788, -0.7959489, -0.14106098, -0.5778039, 0.7313535, -0.792962, 3.9134703, 0
882, 1383116556, 0.112274766, -0.79914105, -0.14437306, -0.572647, 0.83754236, -0.80253947, 2.9134483, 0
883, 1383133223, 0.11494962, -0.8024794, -0.14561863, -0.56710553, 0.8401852, -0.86503285, 2.630374, 0
884, 1383149890, 0.12063035, -0.8065548, -0.14464745, -0.56035274, 1.2380575, -1.4673898, 2.8213768, 0
885, 1383166557, 0.12931685, -0.81144387, -0.14207861, -0.55195075, 1.7620255, -1.792453, 3.511218, 0
886, 1383183224, 0.13952126, -0.81702167, -0.13935821, -0.54183847, 2.1902313, -2.0229769, 3.8404045, 0
887, 1383199891, 0.14963646, -0.8228971, -0.13777526, -0.53053504, 2.1844265, -1.8054402, 3.4542952, 0
888, 1383216558, 0.15856172, -0.82866436, -0.13764928, -0.5188704, 1.8479073, -1.3251415, 2.2128534, 0
889, 1383233225, 0.16632864, -0.8339351, -0.13836294, -0.5076838, 1.3901907, -0.82982695, 0.8386879, 0
890, 1383249892, 0.17379719, -0.8386499, -0.13829815, -0.49732736, 1.012785, -0.4117827, -0.2568655, 0
891, 1383266559, 0.18229975, -0.84314793, -0.13593327, -0.4872276, 0.91289204, -0.21916428, -0.43453884, 0
892, 1383283226, 0.19188434, -0.8476766, -0.13253962, -0.4765061, 1.10745, 0.26127434, -0.60557365, 0
893, 1383299893, 0.2015728, -0.8521763, -0.13053624, -0.46489158, 0.98836845, 0.4635033, -0.99123764, 0
894, 1383316560, 0.21047036, -0.85639024, -0.13001229, -0.45320532, 0.7483522, 0.32431662, -1.5465097, 0
895, 1383333227, 0.21895607, -0.8603122, -0.13005988, -0.4415944, 0.43004233, 0.53494686, -1.9632492, 0
896, 1383349894, 0.2269744, -0.86383736, -0.13008356, -0.43051845, 0.07365864, 0.67819107, -2.2380223, 0
897, 1383366561, 0.23461491, -0.86709636, -0.12979628, -0.41982484, -0.14345106, 0.76641744, -2.1078877, 0
898, 1383383228, 0.24204686, -0.87037617, -0.12913993, -0.40887856, -0.39232463, 0.9627997, -2.0756574, 0
899, 1383399895, 0.24908282, -0.8737059, -0.12787692, -0.39779833, -0.65268546, 1.1334251, -2.0737567, 0
900, 1383416562, 0.25587785, -0.8768999, -0.12607294, -0.38688332, -0.85531086, 1.1364638, -2.2446132, 0
901, 1383433229, 0.2625515, -0.87963635, -0.12404234, -0.37672296, -0.86885405, 0.86362654, -2.1356535, 0
902, 1383449896, 0.26850882, -0.88179696, -0.12228062, -0.36794683, -0.8278265, 0.5925973, -2.0830045, 0
903, 1383466563, 0.27386892, -0.88347197, -0.121027894, -0.3603131, -0.7973678, 0.5188232, -1.8956981, 0
904, 1383483230, 0.27888355, -0.8849045, -0.119941145, -0.35324547, -0.6514237, 0.5524346, -1.7273245, 0
905, 1383499897, 0.28371692, -0.88631564, -0.118387856, -0.3463144, -0.62632746, 0.6662883, -1.3250036, 0
906, 1383516564, 0.28842005, -0.88795525, -0.11644521, -0.33880675, -0.86931676, 1.0055251, -0.9996567, 0
907, 1383533231, 0.29270223, -0.88983804, -0.114377595, -0.33080432, -1.1045159, 1.1763482, -1.1881733, 0
908, 1383549898, 0.29638666, -0.8915062, -0.11236377, -0.32364538, -1.2483895, 0.87635314, -1.289011, 0
909, 1383566565, 0.29947636, -0.8927688, -0.11015246, -0.31803185, -1.37864, 0.8020662, -1.4466667, 0
910, 1383583232, 0.30206028, -0.8936542, -0.107826345, -0.31387135, -1.3063887, 0.6834322, -1.2479877, 0
911, 1383599899, 0.3043895, -0.89438653, -0.10538505, -0.31034487, -1.1059784, 0.4982524, -1.1759157, 0
912, 1383616566, 0.3064468, -0.89510274, -0.10322374, -0.30696324, -0.93235946, 0.4576077, -1.020627, 0
913, 1383633233, 0.30807763, -0.8958508, -0.101577066, -0.30368057, -0.88093, 0.41552064, -1.0120468, 0
914, 1383649900, 0.309447, -0.896511, -0.10030751, -0.3007474, -0.99257547, 0.43275326, -1.0188913, 0
915, 1383666567, 0.31083772, -0.8970687, -0.09860531, -0.2982025, -1.2238224, 0.5877007, -1.0175571, 0
916, 1383683234, 0.31217372, -0.89756274, -0.09617612, -0.2961065, -1.3108927, 0.7903668, -0.75572586, 0
917, 1383699901, 0.31301883, -0.8980021, -0.09364217, -0.29469106, -1.1695676, 0.7304399, -0.6390314, 0
918, 1383716568, 0.31348413, -0.8983889, -0.0918349, -0.29358378, -1.0164989, 0.5180724, -0.5931568, 0
919, 1383733235, 0.31354395, -0.8986589, -0.091026954, -0.29294506, -1.2291406, 0.4985899, -0.71273804, 0
920, 1383749902, 0.31323504, -0.8987888, -0.09081183, -0.2929434, -1.2026182, 0.33333537, -0.769227, 0
921, 1383766569, 0.31274468, -0.8987016, -0.09104787, -0.29366085, -1.1182857, 0.2565486, -0.79817295, 0
922, 1383783236, 0.31223458, -0.8984867, -0.091192394, -0.2948143, -0.9630279, 0.19550276, -0.63075256, 0
923, 1383799903, 0.31184578, -0.8981391, -0.09122166, -0.29627162, -0.8064194, 0.18623322, -0.47749138, 0
924, 1383816570, 0.31143746, -0.89773345, -0.09109805, -0.29796407, -0.60901314, 0.23705113, -0.24580002, 0
925, 1383833237, 0.3107957, -0.8973127, -0.091182016, -0.29986998, -0.5414606, 0.25614965, -0.08485603, 0
926, 1383849904, 0.30990982, -0.89686066, -0.09155968, -0.30201638, -0.47671425, 0.2608919, 0.035082817, 0
927, 1383866571, 0.30890858, -0.8963381, -0.09221888, -0.3043839, -0.49742988, 0.24088147, -0.041044235, 0
928, 1383883238, 0.30806544, -0.8958043, -0.09266196, -0.30666664, -0.5562585, 0.30564368, -0.1407423, 0
929, 1383899905, 0.30732483, -0.89528394, -0.09278936, -0.3088823, -0.36969355, 0.30145505, -0.037316322, 0
930, 1383916572, 0.3063812, -0.8948141, -0.09275678, -0.3111831, -0.1676483, 0.31089938, 0.094034195, 0
931, 1383933239, 0.30529642, -0.89438367, -0.09277759, -0.3134715, -0.10228548, 0.35686994, 0.119478226, 0
932, 1383949906, 0.30396396, -0.8940008, -0.093274154, -0.31570292, -0.1692541, 0.3729488, 0.024796486, 0
933, 1383966573, 0.30232346, -0.8935539, -0.09411027, -0.31828523, -0.34805104, 0.4686566, -0.16182804, 0
934, 1383983240, 0.3002638, -0.89303005, -0.09527297, -0.32134435, -0.5973584, 0.493817, -0.29528332, 0
935, 1383999907, 0.2979277, -0.8924442, -0.09678913, -0.32467604, -0.720071, 0.5144875, -0.44542885, 0
936, 1384016574, 0.29524142, -0.8917859, -0.09885728, -0.32829508, -0.81681645, 0.5358149, -0.60686016, 0
937, 1384033241, 0.29211032, -0.8910409, -0.10122753, -0.33237174, -0.98378444, 0.58907646, -0.8828945, 0
938, 1384049908, 0.28877705, -0.8902166, -0.10327619, -0.33683285, -1.3069834, 0.7240353, -1.1657305, 0
939, 1384066575, 0.28548956, -0.88930166, -0.104000464, -0.34179294, -1.7269224, 0.86461496, -1.3541937, 0
940, 1384083242, 0.28257668, -0.8883094, -0.10309791, -0.34702706, -1.7978336, 0.9561661, -1.4832277, 0
941, 1384099909, 0.27988267, -0.8872206, -0.10105353, -0.35255304, -1.6564822, 1.0181502, -1.5131855, 0
942, 1384116576, 0.2767513, -0.8859499, -0.09920387, -0.35869223, -1.4935336, 1.1421349, -1.6660738, 0
943, 1384133243, 0.27269775, -0.8843755, -0.09805156, -0.36592588, -1.2261919, 1.0686029, -1.8578601, 0
944, 1384149910, 0.26777783, -0.88239026, -0.09766766, -0.37435782, -0.9359465, 0.899835, -1.8444123, 0
945, 1384166577, 0.2621696, -0.8801186, -0.09852579, -0.38334212, -0.7084808, 0.8545954, -1.7072105, 0
946, 1384183244, 0.25572893, -0.87758774, -0.10063119, -0.3928309, -0.6283509, 0.7699354, -1.8908086, 0
947, 1384199911, 0.24883735, -0.87471014, -0.103019364, -0.40292612, -0.53749746, 0.45630026, -2.0850735, 0
948, 1384216578, 0.24180812, -0.8714282, -0.1052387, -0.41360196, -0.43315214, 0.19443348, -2.158431, 0
949, 1384233245, 0.23485643, -0.8677651, -0.1073502, -0.4246201, -0.29406756, -0.0048699, -2.1632628, 0
950, 1384249912, 0.22834477, -0.86372316, -0.10929398, -0.4357704, -0.12852785, -0.052328967, -2.0953765, 0
951, 1384266579, 0.22237761, -0.8591336, -0.11062764, -0.44743633, -0.05529448, 0.106471404, -2.0102983, 0
952, 1384283246, 0.21715805, -0.854077, -0.110694565, -0.45950168, 0.14332817, 0.34140465, -1.7688513, 0
953, 1384299913, 0.21230733, -0.8488334, -0.109896354, -0.47151953, 0.44361016, 0.52376217, -1.1035757, 0
954, 1384316580, 0.20739457, -0.8435578, -0.10880931, -0.48327884, 0.6892869, 0.4715816, -0.64340115, 0
955, 1384333247, 0.20210674, -0.83875173, -0.10910484, -0.49370506, 1.2384336, 0.080668956, 0.01781845, 0
956, 1384349914, 0.19611649, -0.83455104, -0.111441135, -0.50263697, 1.5566158, -0.5443518, 0.31016254, 0
957, 1384366581, 0.19007172, -0.8305634, -0.11346694, -0.51104087, 1.5556976, -0.6302432, 0.64274025, 0
958, 1384383248, 0.18417951, -0.8262855, -0.11396364, -0.5199449, 1.3230828, -0.4711179, 0.99207497, 0
959, 1384399915, 0.17827296, -0.821869, -0.113551624, -0.5290142, 1.3093948, -0.55810326, 1.3230991, 0
960, 1384416582, 0.17245524, -0.8177369, -0.113456845, -0.5373016, 1.4842068, -1.0665194, 1.5111437, 0
961, 1384433249, 0.16709849, -0.8137888, -0.11388657, -0.54484487, 1.5057763, -1.2956836, 1.7573214, 0
962, 1384449916, 0.16228469, -0.80994457, -0.114746496, -0.5518033, 1.1948799, -1.0237595, 1.6599827, 0
963, 1384466583, 0.15837482, -0.80638415, -0.115202926, -0.5580237, 0.8630376, -0.8384201, 1.6175833, 0
964, 1384483250, 0.15578021, -0.80336356, -0.11453157, -0.56322485, 0.8811853, -0.878712, 2.07652, 0
965, 1384499917, 0.15405913, -0.8010775, -0.1134189, -0.5671658, 0.97308356, -0.9096873, 2.7547493, 0
966, 1384516584, 0.15204015, -0.79914314, -0.112999335, -0.57051307, 1.0066936, -0.929763, 2.972866, 0
967, 1384533251, 0.14940754, -0.79730666, -0.113207996, -0.57372785, 0.95492804, -0.9904436, 2.7146692, 0
968, 1384549918, 0.14646654, -0.7954779, -0.1136076, -0.57693654, 0.74825096, -0.8086108, 2.4084272, 0
969, 1384566585, 0.14334865, -0.79373175, -0.11407643, -0.5800239, 0.45520094, -0.52987313, 1.9893789, 0
970, 1384583252, 0.14065577, -0.7921239, -0.11426198, -0.5828378, 0.2291588, -0.48040825, 1.5463552, 0
971, 1384599919, 0.13862178, -0.7907054, -0.11418131, -0.585262, 0.18467686, -0.50286967, 1.2239008, 0
972, 1384616586, 0.13720934, -0.789621, -0.11387392, -0.5871158, 0.26416975, -0.5768693, 1.2412367, 0
973, 1384633253, 0.13623127, -0.788769, -0.11359936, -0.58854055, 0.33985567, -0.514598, 1.3053093, 0
974, 1384649920, 0.13505027, -0.78812516, -0.11345311, -0.58970237, 0.26145265, -0.38947278, 1.2874088, 0
975, 1384666587, 0.13426223, -0.78745145, -0.11263289, -0.59093815, 0.19581811, -0.5502177, 1.177474, 0
976, 1384683254, 0.13480733, -0.7867657, -0.110594854, -0.59211135, 0.097704045, -0.6459107, 1.0960541, 0
977, 1384699921, 0.13669723, -0.78626823, -0.10785883, -0.59284294, 0.08272767, -0.6682784, 1.1210842, 0
978, 1384716588, 0.138715, -0.7859458, -0.10553257, -0.5932205, 0.14232256, -0.617813, 1.0700521, 0
979, 1384733255, 0.13976282, -0.7856258, -0.10442933, -0.5935933, 0.15668744, -0.4055984, 0.7926302, 0
980, 1384749922, 0.13956465, -0.7852522, -0.104517244, -0.59411865, 0.049967285, 0.067508176, 0.24908924, 0
981, 1384766589, 0.13867778, -0.7849106, -0.10508123, -0.59467816, -0.041608654, 0.43713793, -0.23506737, 0
982, 1384783256, 0.13756034, -0.7845381, -0.105778016, -0.595305, -0.19581836, 0.6301826, 1.3695507, 0
983, 1384799923, 0.13517228, -0.78449917, -0.108116716, -0.59548336, 0.25902274, 0.49264055, -0.6088829, 0
984, 1384816590, 0.13258415, -0.78448045, -0.11005933, -0.595734, -0.0062736175, 0.24048552, 0.085995674, 0
985, 1384833257, 0.12974612, -0.78428406, -0.11178069, -0.59629655, 0.15157199, -0.008391794, 0.049124718, 0
986, 1384849924, 0.1274954, -0.784276, -0.11346312, -0.59647495, 0.11611773, -0.11863459, 0.0903635, 0
987, 1384866591, 0.12571034, -0.78428, -0.11508038, -0.5965389, 0.01647574, -0.14460556, 0.058559418, 0
988, 1384883258, 0.1242273, -0.7842366, -0.11680833, -0.5965706, 0.0051593636, -0.12843591, 0.05862522, 0
989, 1384899925, 0.122737415, -0.78400105, -0.11854819, -0.59684545, -0.054500896, -0.068885796, 0.05725479, 0
990, 1384916592, 0.121200204, -0.7835691, -0.12038201, -0.5973596, -0.0672251, -0.027697949, 0.054154396, 0
991, 1384933259, 0.11955746, -0.78313696, -0.12231406, -0.5978645, 0.049387466, 0.044472374, 0.06993961, 0
992, 1384949926, 0.11830998, -0.78294766, -0.12450466, -0.59790856, 0.045612946, 0.016658923, 0.0802021, 0
993, 1384966593, 0.117478296, -0.7832891, -0.12694214, -0.5971119, 0.11103612, -0.035843097, 0.0141916275, 0
994, 1384983260, 0.11647338, -0.78375673, -0.12939091, -0.59616894, 0.034931794, -0.07751664, 0.03127575, 0
995, 1384999927, 0.11527742, -0.7842445, -0.13152343, -0.5952927, 0.10961691, -0.13875332, 0.07234287, 0
996, 1385016594, 0.11437925, -0.7846087, -0.13297835, -0.5946624, 0.051141858, -0.11992962, 0.099850655, 0
997, 1385033261, 0.11392583, -0.7848363, -0.13383628, -0.5942563, 0.115339346, 0.039144382, 0.108252525, 0
998, 1385049928, 0.113647126, -0.78499055, -0.1344271, -0.59397286, 0.03655701, -0.018160315, 0.05448532, 0
999, 1385066595, 0.11334484, -0.7851803, -0.13499615, -0.5936506, 0.020054644, -0.013368868, 0.05082798, 0
1000, 1385083262, 0.11297799, -0.7853968, -0.13565765, -0.5932832, 0.010984181, 0.01834896, 0.058701515, 0
1001, 1385099929, 0.11263408, -0.7856248, -0.13638268, -0.59288037, 0.07044459, -0.0062974775, 0.068175316, 0
1002, 1385116596, 0.112334654, -0.78583795, -0.13704865, -0.59250104, 0.014983205, -0.030395024, 0.050086975, 0
1003, 1385133263, 0.11199192, -0.78600794, -0.13762899, -0.59220576, -0.014486587, -0.10514681, 0.100128174, 0
1004, 1385149930, 0.11193221, -0.7860145, -0.1377943, -0.5921698, 0.06308857, -0.0421646, 0.061735153, 0
1005, 1385166597, 0.11188646, -0.7860254, -0.13788894, -0.59214205, 0.06299562, -0.012828191, 0.047039032, 0
1006, 1385183264, 0.11179215, -0.78605366, -0.13798666, -0.5920996, 0.022418657, 0.023103863, 0.05924797, 0
1007, 1385199931, 0.11154048, -0.78612953, -0.13820226, -0.5919961, 0.013778484, 0.050482076, 0.074827194, 0
1008, 1385216598, 0.1110262, -0.7861734, -0.13857664, -0.59194696, 0.012802473, 0.07753547, 0.05996704, 0
1009, 1385233265, 0.11040698, -0.7862171, -0.13903384, -0.59189755, 0.030737977, -0.03654906, 0.06266403, 0
1010, 1385249932, 0.109938905, -0.7862434, -0.13941976, -0.59185886, 0.03028236, -0.02483419, 0.05473709, 0
1011, 1385266599, 0.109479725, -0.7862616, -0.13980669, -0.5918287, 0.032871563, -0.014226097, 0.0619545, 0
1012, 1385283266, 0.10901519, -0.7862789, -0.14022323, -0.5917929, 0.024211984, -0.028055513, 0.056427002, 0
1013, 1385299933, 0.10870604, -0.786295, -0.140511, -0.59176016, 0.02076719, -0.08153518, 0.06624985, 0
1014, 1385316600, 0.10863462, -0.7862988, -0.14064667, -0.59173584, 0.031861704, -0.038653605, 0.056678772, 0
1015, 1385333267, 0.10869383, -0.7862883, -0.14083353, -0.5916945, 0.037475076, 0.015863162, 0.055156708, 0
1016, 1385349934, 0.10866915, -0.7862942, -0.14099509, -0.5916527, 0.030712469, -4.8463198E-4, 0.046416283, 0
1017, 1385366601, 0.10858348, -0.7863174, -0.14105861, -0.5916224, 0.021208754, -0.04294092, 0.0607996, 0
1018, 1385383268, 0.10856238, -0.7863267, -0.14107502, -0.59160995, 0.02692898, -0.01756471, 0.06018448, 0
1019, 1385399935, 0.10858431, -0.7863235, -0.14106002, -0.5916138, 0.01547837, -6.668509E-4, 0.056897163, 0
1020, 1385416602, 0.10858422, -0.78632414, -0.1410794, -0.59160835, 0.030987822, 0.014181562, 0.06285858, 0
1021, 1385433269, 0.10857471, -0.7863244, -0.14110182, -0.5916045, 0.020068431, 0.0039487476, 0.06994629, 0
1022, 1385449936, 0.10854841, -0.78633064, -0.1411145, -0.591598, 0.025221035, -0.01217313, 0.053765297, 0
1023, 1385466603, 0.10855624, -0.7863356, -0.14111374, -0.59159017, 0.030556763, -0.0032700505, 0.057258606, 0
1024, 1385483270, 0.10854745, -0.7863485, -0.1410975, -0.5915783, 0.012739847, -0.0025505063, 0.06071949, 0
1025, 1385499937, 0.10854234, -0.7863573, -0.1410741, -0.59157324, 0.011218437, -0.01677392, 0.06361103, 0
1026, 1385516604, 0.10854177, -0.7863594, -0.14105946, -0.591574, 0.019954218, -0.008612848, 0.069913864, 0
1027, 1385533271, 0.108539484, -0.7863612, -0.141067, -0.5915703, 0.020316433, 9.174648E-4, 0.059827805, 0
1028, 1385549938, 0.10853736, -0.7863552, -0.14107205, -0.5915773, 0.023665607, -0.003814975, 0.06468773, 0
1029, 1385566605, 0.10852385, -0.7863606, -0.14109032, -0.59156823, 0.024334429, 0.0071786772, 0.06938839, 0
1030, 1385583272, 0.10851457, -0.78636515, -0.14110541, -0.59156036, 0.03266195, 0.006081564, 0.060067177, 0
1031, 1385599939, 0.108516425, -0.7863643, -0.14112407, -0.5915566, 0.02637545, -0.00436342, 0.05217457, 0
1032, 1385616606, 0.10851721, -0.78636533, -0.14113328, -0.5915529, 0.030117504, -0.016463015, 0.06759739, 0
1033, 1385633273, 0.108518116, -0.7863668, -0.14114057, -0.59154904, 0.016363552, -0.008101394, 0.05786991, 0
1034, 1385649940, 0.10851225, -0.7863697, -0.14115866, -0.59154207, 0.029489726, -0.008980638, 0.0484972, 0
1035, 1385666607, 0.10850982, -0.78637624, -0.14117046, -0.5915311, 0.023891788, -0.020108901, 0.048114777, 0
1036, 1385683274, 0.108504534, -0.7863792, -0.14117713, -0.59152645, 0.016524145, -0.022603419, 0.061909676, 0
1037, 1385699941, 0.10850246, -0.7863872, -0.14118287, -0.59151495, 0.01784621, -0.0140352165, 0.05499649, 0
1038, 1385716608, 0.108496554, -0.7863941, -0.14110042, -0.5915265, 0.023825238, -0.05069475, 0.053725243, 0
1039, 1385733275, 0.10792625, -0.7866656, -0.13954158, -0.5916396, 0.07309179, -0.53151816, 0.035811424, 0
1040, 1385749942, 0.10879977, -0.78691727, -0.13655287, -0.59184206, 0.18667595, -0.21107653, 0.042607307, 0
1041, 1385766609, 0.10882371, -0.7872726, -0.13302739, -0.5921681, 0.14660421, 0.110988654, 0.21016979, 0
1042, 1385783276, 0.11054253, -0.78733253, -0.12947376, -0.5925576, 0.116382554, -0.11716359, 0.21508408, 0
1043, 1385799943, 0.11349648, -0.78771186, -0.12650254, -0.5921366, 0.25545722, 0.044970807, 1.9556484, 0
1044, 1385816610, 0.1157009, -0.7893321, -0.12530391, -0.5898028, 0.7997764, 0.038043357, 3.392644, 0
1045, 1385833277, 0.11688882, -0.7918871, -0.1254448, -0.58610195, 0.8155233, 0.24077654, 3.863433, 0
1046, 1385849944, 0.11676892, -0.7950759, -0.12664428, -0.5815332, 0.84594613, -0.0050519514, 3.8736763, 0
1047, 1385866611, 0.11494922, -0.79871094, -0.12887897, -0.5764008, 1.0223567, -0.5087437, 3.7605276, 0
1048, 1385883278, 0.113283716, -0.80224395, -0.13096558, -0.57133114, 0.92119837, -1.2088166, 3.499813, 0
1049, 1385899945, 0.112995304, -0.80606055, -0.13222808, -0.56569815, 0.8987455, -1.0262928, 2.7263422, 0
1050, 1385916612, 0.114523456, -0.8100403, -0.13231418, -0.5596536, 0.7737384, -1.1917083, 2.266304, 0
1051, 1385933279, 0.11826732, -0.81409216, -0.13110521, -0.55324364, 0.87450796, -1.333282, 2.119525, 0
1052, 1385949946, 0.12319621, -0.8182731, -0.12953138, -0.5463271, 1.0097114, -1.2704425, 2.2632313, 0
1053, 1385966613, 0.12835667, -0.82245785, -0.12854543, -0.5390398, 1.0450585, -1.3502597, 2.056674, 0
1054, 1385983280, 0.13360327, -0.8266681, -0.12843414, -0.53129554, 1.10569, -1.3727463, 1.4634991, 0
1055, 1385999947, 0.1394137, -0.83102447, -0.12882124, -0.5228453, 1.0915369, -1.3823636, 0.96782684, 0
1056, 1386016614, 0.14598575, -0.835314, -0.12877437, -0.51415575, 1.0215888, -1.1548593, 0.56593895, 0
1057, 1386033281, 0.15296973, -0.8393684, -0.12739666, -0.50579786, 0.8439885, -0.77226746, 0.17958927, 0
1058, 1386049948, 0.16024177, -0.84313047, -0.12483289, -0.49786595, 0.6701486, -0.55005, -0.24801731, 0
1059, 1386066615, 0.16741994, -0.84683716, -0.12190754, -0.4898733, 0.6036383, -0.39692223, -0.46600056, 0
1060, 1386083282, 0.17401299, -0.85068804, -0.11958132, -0.48140422, 0.49788237, -0.16311562, -0.7829132, 0
1061, 1386099949, 0.18012616, -0.85447216, -0.117988475, -0.47276908, 0.36067882, 0.05823317, -1.2744846, 0
1062, 1386116616, 0.18633355, -0.8579335, -0.11695881, -0.46427435, 0.16050686, 0.18672228, -1.594737, 0
1063, 1386133283, 0.19249113, -0.86115545, -0.1160763, -0.4559438, 0.1456237, 0.09425049, -1.6095324, 0
1064, 1386149950, 0.1986826, -0.86421275, -0.115578316, -0.44755265, 0.2919785, 0.034728885, -1.4000416, 0
1065, 1386166617, 0.20503372, -0.8672204, -0.11519902, -0.4388841, 0.22815488, 0.030886138, -1.3244781, 0
1066, 1386183284, 0.21121386, -0.87018347, -0.11446886, -0.43019354, 0.06299669, 0.18014708, -1.3089943, 0
1067, 1386199951, 0.21705674, -0.8730566, -0.11335346, -0.42167497, -0.05093092, 0.29241508, -1.2330084, 0
1068, 1386216618, 0.22267966, -0.87572443, -0.11217399, -0.4134459, -0.22445926, 0.48604536, -1.169816, 0
1069, 1386233285, 0.22799633, -0.8782433, -0.11110954, -0.40541482, -0.3517598, 0.5053821, -1.242176, 0
1070, 1386249952, 0.23326103, -0.88057274, -0.10999463, -0.39759576, -0.35206896, 0.4238312, -1.2365608, 0
1071, 1386266619, 0.23866402, -0.8828318, -0.10875423, -0.38964078, -0.13622081, 0.35871685, -1.1074638, 0
1072, 1386283286, 0.24380219, -0.8849785, -0.10751859, -0.38185543, 0.09066761, 0.12932415, -0.8038807, 0
1073, 1386299953, 0.24906918, -0.88709307, -0.10595719, -0.3739031, 0.09514779, 0.17923683, -0.7648783, 0
1074, 1386316620, 0.25423414, -0.88924754, -0.10464711, -0.36558557, -0.051825166, 0.4396665, -0.7772417, 0
1075, 1386333287, 0.25877613, -0.89140713, -0.103693925, -0.35731804, -0.19028842, 0.46139443, -0.8714056, 0
1076, 1386349954, 0.26253, -0.8934507, -0.102809936, -0.3496488, -0.43209007, 0.6430052, -0.8830576, 0
1077, 1386366621, 0.26576254, -0.8952073, -0.10163626, -0.3429936, -0.63094056, 0.53252834, -0.83360386, 0
1078, 1386383288, 0.26846355, -0.89669716, -0.100905396, -0.3371642, -0.67881966, 0.43996602, -0.78554535, 0
1079, 1386399955, 0.2707755, -0.89797235, -0.10081131, -0.33190867, -0.83140135, 0.48433784, -0.97056675, 0
1080, 1386416622, 0.27288637, -0.8990893, -0.10072377, -0.32714894, -0.9739177, 0.5532867, -1.0935402, 0
1081, 1386433289, 0.27516374, -0.9001923, -0.09967413, -0.3224969, -0.96098745, 0.63967174, -0.97761345, 0
1082, 1386449956, 0.2775468, -0.9012202, -0.09814096, -0.318023, -0.8594213, 0.8693798, -0.6450138, 0
1083, 1386466623, 0.2798806, -0.9021084, -0.09653068, -0.3139255, -0.94903857, 0.77184165, -0.59294796, 0
1084, 1386483290, 0.2820338, -0.90294605, -0.09493583, -0.31005245, -1.0561447, 0.75017387, -0.6342869, 0
1085, 1386499957, 0.28388384, -0.9036692, -0.0933814, -0.3067114, -1.0962213, 0.7332946, -0.61053276, 0
1086, 1386516624, 0.28559583, -0.9042615, -0.09150996, -0.30392805, -1.0019635, 0.6384987, -0.54123497, 0
1087, 1386533291, 0.28708366, -0.9047946, -0.08963856, -0.30148798, -0.974263, 0.699001, -0.5508213, 0
1088, 1386549958, 0.28827325, -0.9051844, -0.0880685, -0.29963967, -1.0054759, 0.63126874, -0.722764, 0
1089, 1386566625, 0.28951037, -0.9054212, -0.08670554, -0.2981249, -0.9692597, 0.6276742, -0.81038284, 0
1090, 1386583292, 0.29041353, -0.9056347, -0.0854164, -0.29696804, -0.9541793, 0.6339261, -0.5990877, 0
1091, 1386599959, 0.29102755, -0.9058176, -0.084418945, -0.29609284, -0.95414597, 0.65813637, -0.47664833, 0
1092, 1386616626, 0.29107353, -0.90593076, -0.084471956, -0.29568654, -1.0251168, 0.47556427, -0.5810566, 0
1093, 1386633293, 0.29070958, -0.9058724, -0.08521898, -0.2960086, -1.0462149, 0.3849946, -0.75372696, 0
1094, 1386649960, 0.29020503, -0.90559477, -0.08574046, -0.29720053, -1.0725591, 0.37772125, -0.7522793, 0
1095, 1386666627, 0.28980604, -0.9053032, -0.0856423, -0.29850343, -0.98962003, 0.5099195, -0.6420307, 0
1096, 1386683294, 0.28955188, -0.9050251, -0.0851959, -0.299718, -0.873165, 0.5075011, -0.49842834, 0
1097, 1386699961, 0.28895864, -0.904734, -0.08475106, -0.30129147, -0.9274443, 0.58526284, -0.35169983, 0
1098, 1386716628, 0.2881331, -0.90438145, -0.08438165, -0.30323827, -1.1010622, 0.6402113, -0.38853836, 0
1099, 1386733295, 0.2871977, -0.90395325, -0.08396449, -0.30550978, -1.1939697, 0.68277353, -0.53438854, 0
1100, 1386749962, 0.2860936, -0.9033595, -0.08327821, -0.3084753, -1.1124122, 0.7412304, -0.57974625, 0
1101, 1386766629, 0.28479457, -0.90257466, -0.08256444, -0.31214473, -1.0642021, 0.75552094, -0.5621195, 0
1102, 1386783296, 0.28309885, -0.90166503, -0.082388885, -0.31633434, -0.95362806, 0.61663985, -0.5735407, 0
1103, 1386799963, 0.28084472, -0.90061545, -0.08294049, -0.32115266, -0.95233315, 0.6148372, -0.52702713, 0
1104, 1386816630, 0.27828997, -0.8994196, -0.08430414, -0.3263314, -1.1235386, 0.69823545, -0.6771507, 0
1105, 1386833297, 0.27541184, -0.8980029, -0.08619161, -0.3321296, -1.2218573, 0.7036293, -0.97182655, 0
1106, 1386849964, 0.2722226, -0.89623994, -0.08800641, -0.33897445, -1.1017025, 0.66111064, -1.1186876, 0
1107, 1386866631, 0.26897955, -0.8942556, -0.089313366, -0.3463818, -0.8648189, 0.5981991, -1.125454, 0
1108, 1386883298, 0.2659251, -0.89217156, -0.08982165, -0.3539014, -0.8080031, 0.6341856, -1.0453482, 0
1109, 1386899965, 0.26278016, -0.8900635, -0.08981455, -0.3614792, -0.7420346, 0.63866055, -1.058032, 0
1110, 1386916632, 0.25945318, -0.8878924, -0.089503855, -0.369216, -0.7710147, 0.5443182, -1.1463785, 0
1111, 1386933299, 0.25599164, -0.8856007, -0.08904082, -0.37716284, -0.8460906, 0.52611196, -1.2883348, 0
1112, 1386949966, 0.25253826, -0.8830688, -0.08846008, -0.38547254, -0.8778813, 0.5645327, -1.5184498, 0
1113, 1386966633, 0.24900216, -0.88036203, -0.087859325, -0.394007, -0.53570366, 0.5088361, -1.4939919, 0
1114, 1386983300, 0.24507363, -0.87741053, -0.0874619, -0.4030387, -0.21280102, 0.39858025, -1.2863264, 0
1115, 1386999967, 0.2410754, -0.8742678, -0.086801864, -0.41231543, -0.21942945, 0.4506694, -1.2594986, 0
1116, 1387016634, 0.23694567, -0.87102896, -0.08589607, -0.4216484, -0.11741863, 0.44867554, -1.1087122, 0
1117, 1387033301, 0.23255144, -0.8676675, -0.08530282, -0.43104115, 0.14735207, 0.24052028, -0.97164917, 0
1118, 1387049968, 0.22763307, -0.86412853, -0.086060725, -0.4405213, 0.39001557, -0.02119104, -0.7860842, 0
1119, 1387066635, 0.22244404, -0.860253, -0.08762686, -0.4503389, 0.2529686, 0.0033345898, -1.0646114, 0
