DeviceTag:,Xsens DOT 4,,,,,,,,,,,,,,,,,
FirmwareVersion:,1.0.0,,,,,,,,,,,,,,,,,
AppVersion:,2020.1.1,,,,,,,,,,,,,,,,,
Measurement Mode:,Sensor fusion Mode - Extended (Quaternion),,,,,,,,,,,,,,,,,
StartTime:,2020-06-15 14:15:13.639 +0200,,,,,,,,,,,,,,,,,
© Xsens Technologies B. V. 2005-2020,,,,,,,,,,,,,,,,,,,
PacketCounter,SampleTimeFine,Quat_W,Quat_X,Quat_Y,Quat_Z,FreeAcc_X,FreeAcc_Y,FreeAcc_Z,Status
1, 1807222109, 0.81465787, 0.4318649, 0.36320022, 0.13383177, 2.3106592, -0.1238378, -0.2421503, 0
2, 1807238776, 0.8248884, 0.42784134, 0.33927345, 0.14630306, 1.7578222, -0.17073484, -0.123529434, 0
3, 1807255443, 0.833552, 0.42326975, 0.31854102, 0.15673414, 1.2995827, -0.18519479, -0.08489227, 0
4, 1807272110, 0.8395314, 0.41940483, 0.30407354, 0.1637864, 0.984151, -0.1735949, -0.07477951, 0
5, 1807288777, 0.84354323, 0.41643524, 0.29437843, 0.16839859, 0.75719684, -0.14062408, -0.06229496, 0
6, 1807305444, 0.84629995, 0.41420054, 0.28776017, 0.17148937, 0.57741064, -0.11892923, -0.028155327, 0
7, 1807322111, 0.84826785, 0.41249877, 0.28311187, 0.17359193, 0.4607923, -0.10609065, -0.0055189133, 0
8, 1807338778, 0.8497247, 0.4112072, 0.27970278, 0.17505144, 0.38209674, -0.101141624, -0.0012779236, 0
9, 1807355445, 0.85083836, 0.41019276, 0.27713987, 0.17609522, 0.3050145, -0.06562206, -0.013667107, 0
10, 1807372112, 0.8516765, 0.40939972, 0.27521476, 0.17690663, 0.2965838, -0.038090184, -0.0035848618, 0
11, 1807388779, 0.8522933, 0.40880927, 0.27374783, 0.17757665, 0.26764336, -0.07689248, -0.00847435, 0
12, 1807405446, 0.8527674, 0.40834048, 0.27260688, 0.17813358, 0.22782564, -0.09929921, -0.034466743, 0
13, 1807422113, 0.85315794, 0.40788856, 0.27175587, 0.1785982, 0.20024951, -0.07193183, -0.007949829, 0
14, 1807438780, 0.85352737, 0.40743473, 0.27103975, 0.17895712, 0.17644203, -0.07977289, 0.012341499, 0
15, 1807455447, 0.8538946, 0.4069849, 0.27038494, 0.17921926, 0.13185163, -0.048161454, 0.029990196, 0
16, 1807472114, 0.85412157, 0.40646243, 0.2700206, 0.17987147, 0.12482126, 0.004785189, 0.033391, 0
17, 1807488781, 0.85438114, 0.40616786, 0.26953188, 0.1800369, 0.14033864, 0.008238687, 0.004752159, 0
18, 1807505448, 0.8546064, 0.40601277, 0.26904067, 0.1800524, 0.12393704, 0.0036904225, 4.1007996E-5, 0
19, 1807522115, 0.8548564, 0.4060384, 0.26842794, 0.17972226, 0.116186954, -0.020211382, -0.0018091202, 0
20, 1807538782, 0.85502356, 0.4060448, 0.26795927, 0.17961188, 0.11435862, -0.037106056, -0.015394211, 0
21, 1807555449, 0.8551322, 0.40595978, 0.26765397, 0.17974167, 0.058088113, -0.060545415, -0.010024071, 0
22, 1807572116, 0.8553662, 0.40601707, 0.26713794, 0.17926653, 0.07250269, -0.0619075, -0.0063762665, 0
23, 1807588783, 0.8554657, 0.40583467, 0.26696742, 0.17945811, 0.06943318, -0.054470778, 0.02016449, 0
24, 1807605450, 0.85562843, 0.40572906, 0.266661, 0.17937753, 0.077065036, -0.033954076, 0.0030202866, 0
25, 1807622117, 0.85577375, 0.40560743, 0.26637995, 0.17937641, 0.070060134, -0.040319726, 0.012008667, 0
26, 1807638784, 0.85580117, 0.4053303, 0.26636654, 0.17989087, 0.07300201, -0.02170199, 0.008634567, 0
27, 1807655451, 0.85584164, 0.4051104, 0.26630238, 0.1802884, 0.05881341, -0.02708843, -0.002863884, 0
28, 1807672118, 0.8561173, 0.40531063, 0.2656734, 0.17945541, 0.063243665, -0.02620533, 0.0021009445, 0
29, 1807688785, 0.8561909, 0.40519947, 0.26551667, 0.17958705, 0.056931656, -0.03776721, -0.015530586, 0
30, 1807705452, 0.85619754, 0.40494043, 0.26555285, 0.1800855, 0.06837619, -0.029028298, -0.0027475357, 0
31, 1807722119, 0.85643834, 0.4049535, 0.2651031, 0.17957339, 0.06211559, -0.025185887, 0.013126373, 0
32, 1807738786, 0.85653985, 0.40478787, 0.2649561, 0.17967914, 0.056882035, -0.02497556, 0.0013513565, 0
33, 1807755453, 0.8566479, 0.4047436, 0.26472825, 0.1795997, 0.032164857, -0.017099636, 0.010385513, 0
34, 1807772120, 0.8565835, 0.40451083, 0.26485983, 0.1802365, 0.05520077, -0.01935354, -0.008481979, 0
35, 1807788787, 0.85663515, 0.40441668, 0.26474047, 0.18037747, 0.045914255, -0.022063859, -0.007004738, 0
36, 1807805454, 0.8567497, 0.40437242, 0.26452076, 0.18025504, 0.047485776, -0.047404863, -0.01033783, 0
37, 1807822121, 0.85684806, 0.40428114, 0.26435637, 0.18023358, 0.04053944, -0.025821334, -0.020393372, 0
38, 1807838788, 0.85688317, 0.40409654, 0.26434165, 0.1805013, 0.039020445, -0.031774603, -0.0062351227, 0
39, 1807855455, 0.8568999, 0.40390414, 0.2643442, 0.18084873, 0.029570317, -0.05386841, 0.007502556, 0
40, 1807872122, 0.85695225, 0.40370673, 0.26429445, 0.18111445, 0.04091494, -0.036355052, 0.006829262, 0
41, 1807888789, 0.85705996, 0.40356275, 0.2641182, 0.18118219, 0.028437106, 0.017995251, 0.0026082993, 0
42, 1807905456, 0.8571936, 0.40350935, 0.2638594, 0.1810464, 0.043135542, -0.005522558, 0.0015497208, 0
43, 1807922123, 0.8572833, 0.40347615, 0.2636553, 0.18099308, 0.02664185, -0.008122461, 0.0017023087, 0
44, 1807938790, 0.8574409, 0.4035777, 0.26329845, 0.18053871, 0.03956023, -0.018770618, 0.0036125183, 0
45, 1807955457, 0.85752845, 0.40354612, 0.2631158, 0.18045977, 0.031609874, -0.030503707, -0.01139164, 0
46, 1807972124, 0.85748976, 0.4032266, 0.26328063, 0.18111672, 0.03917869, -0.024228133, 0.010232925, 0
47, 1807988791, 0.857527, 0.4029254, 0.26332107, 0.18155111, 0.018595384, 0.015270182, 0.018989563, 0
48, 1808005458, 0.85767406, 0.40279496, 0.26308793, 0.1814839, 0.021645442, 0.0018488992, 0.014762878, 0
49, 1808022125, 0.8575593, 0.4024371, 0.2633508, 0.18243629, 0.0029488064, -0.0015923063, -0.014944077, 0
50, 1808038792, 0.85758585, 0.4023137, 0.26330128, 0.18265466, 0.01953235, -0.008152858, -0.006726265, 0
51, 1808055459, 0.8576097, 0.40221775, 0.26325116, 0.18282646, 0.037131537, -0.013152396, 0.01056385, 0
52, 1808072126, 0.8576501, 0.40218076, 0.2631476, 0.18286765, 0.03875424, -0.023715843, -0.0011663437, 0
53, 1808088793, 0.8576684, 0.40210724, 0.26313418, 0.1829622, 0.061251044, -0.024505513, -0.021068573, 0
54, 1808105460, 0.8577014, 0.40197572, 0.26314178, 0.18308571, 0.025335863, -0.010682802, -0.012629509, 0
55, 1808122127, 0.8578148, 0.40192932, 0.26296937, 0.18290387, 0.00402748, -0.01821206, 0.021737099, 0
56, 1808138794, 0.8579542, 0.401953, 0.26267844, 0.18261589, -0.016983185, 0.006773784, 0.026477814, 0
57, 1808155461, 0.8580915, 0.40203574, 0.26234338, 0.18226999, -0.0100668, 0.016046442, 0.001364708, 0
58, 1808172128, 0.8578732, 0.40161937, 0.26278108, 0.18358015, 0.018016933, 0.0017004865, -0.019503593, 0
59, 1808188795, 0.8577744, 0.40146914, 0.26292446, 0.18416467, 0.037747763, -0.03262775, -0.014104843, 0
60, 1808205462, 0.8578225, 0.40150788, 0.26277956, 0.18406238, 0.017823594, -0.012369878, -0.012916565, 0
61, 1808222129, 0.857817, 0.40143034, 0.2628106, 0.18421312, 0.03659667, -0.02870085, -0.007098198, 0
62, 1808238796, 0.85781896, 0.4013182, 0.2628647, 0.1843711, 0.023609674, -0.025437115, -0.016324997, 0
63, 1808255463, 0.8578482, 0.4012189, 0.2628932, 0.18440992, 0.023207126, 0.014398257, 0.012921333, 0
64, 1808272130, 0.85790575, 0.40116376, 0.2628587, 0.18431164, 0.004902757, 0.030787792, 0.017066956, 0
65, 1808288797, 0.8579094, 0.4010456, 0.26290026, 0.1844927, -0.0011546679, 0.040410023, 0.02160263, 0
66, 1808305464, 0.85794485, 0.40104932, 0.26278502, 0.18448444, -0.007712091, 0.02818342, 0.014709473, 0
67, 1808322131, 0.85794485, 0.40105805, 0.2626874, 0.1846041, 0.019435123, -7.1814714E-4, -0.006213188, 0
68, 1808338798, 0.85800815, 0.4011556, 0.26246393, 0.18441497, -0.0061968965, -0.024046194, -0.011369705, 0
69, 1808355465, 0.85799235, 0.40108508, 0.2624623, 0.18464449, -0.004838385, -0.0401094, -0.0046024323, 0
70, 1808372132, 0.8579631, 0.4009311, 0.26253816, 0.18500647, 0.0022612805, -0.022628227, -0.013090134, 0
71, 1808388799, 0.85799146, 0.40088785, 0.26250058, 0.18502173, -0.0043296693, -0.011263936, 0.0067338943, 0
72, 1808405466, 0.85800743, 0.4008684, 0.26250097, 0.18498965, 0.018329851, -0.015530574, 0.0019235611, 0
73, 1808422133, 0.8580137, 0.4007807, 0.262539, 0.18509702, 0.015704691, 3.5851478E-4, 0.005572319, 0
74, 1808438800, 0.8581293, 0.4007988, 0.26232144, 0.18482946, -4.3920297E-4, -0.018471781, -0.0077028275, 0
75, 1808455467, 0.8583009, 0.4008543, 0.26199293, 0.18437779, -0.022733279, -0.0010835908, 0.01239872, 0
76, 1808472134, 0.85858476, 0.4011128, 0.26140115, 0.18333112, -0.029424587, 0.0051557734, 0.0059347153, 0
77, 1808488801, 0.85865974, 0.40105638, 0.26128554, 0.18326831, -0.003104595, -0.0027936883, -0.0034685135, 0
78, 1808505468, 0.85867316, 0.4009241, 0.2612997, 0.18347484, 0.011709844, 0.019189034, 0.0157938, 0
79, 1808522135, 0.85876215, 0.40089706, 0.26114428, 0.18333828, 0.0090241125, 0.030152569, 0.0065250397, 0
80, 1808538802, 0.8588509, 0.4008656, 0.26098657, 0.18321583, -0.0021902034, 0.016139647, 0.0060100555, 0
81, 1808555469, 0.85897434, 0.40097165, 0.2607062, 0.1828039, -0.04155642, 0.009986335, -0.0071897507, 0
82, 1808572136, 0.85889757, 0.40081808, 0.26085618, 0.18328649, -0.05471776, 0.025363803, 0.00762558, 0
83, 1808588803, 0.8588956, 0.40075237, 0.26084584, 0.18345435, -0.037001006, -9.14615E-4, 0.018722534, 0
84, 1808605470, 0.8588612, 0.4005948, 0.26092204, 0.18385059, -0.007097207, 0.008761708, 0.011458397, 0
85, 1808622137, 0.85878587, 0.4003851, 0.26107454, 0.18444194, -0.0015424629, 0.014107691, -0.010769844, 0
86, 1808638804, 0.85883397, 0.40036985, 0.26094735, 0.18443115, 0.005181701, 0.02278044, -0.028886795, 0
87, 1808655471, 0.85895383, 0.40049508, 0.2606546, 0.18401434, -0.005790774, -0.0032706652, -0.015748024, 0
88, 1808672138, 0.8589614, 0.40042982, 0.2606351, 0.18414865, -0.0076396726, -0.0013316902, 0.016427994, 0
89, 1808688805, 0.858982, 0.4003341, 0.2605955, 0.18431678, -0.01404466, 3.2990513E-4, 0.034593582, 0
90, 1808705472, 0.8590597, 0.4002758, 0.26043588, 0.1843069, 0.017959937, -2.2910078E-4, -0.0018043518, 0
91, 1808722139, 0.8591343, 0.40025657, 0.26026353, 0.18424405, -0.0029132678, 0.02440292, -0.008407593, 0
92, 1808738806, 0.85916466, 0.40024108, 0.26016086, 0.1842814, 0.0051378924, 0.021463726, -0.0038394928, 0
93, 1808755473, 0.8591585, 0.40020722, 0.260127, 0.18443099, -0.0068180393, -0.013484537, -0.001739502, 0
94, 1808772140, 0.85915923, 0.400106, 0.2601335, 0.18463822, 0.010385529, -0.0032067404, 0.0059518814, 0
95, 1808788807, 0.85920215, 0.4000304, 0.2600581, 0.18470848, -0.01350957, 0.0054011904, -0.00438118, 0
96, 1808805474, 0.8592432, 0.3999743, 0.25996882, 0.18476444, -0.02655848, 0.010531483, 0.0077180862, 0
97, 1808822141, 0.8592905, 0.39993367, 0.25986344, 0.18478064, -0.048364628, 0.017853769, -0.007390976, 0
98, 1808838808, 0.8592542, 0.39984983, 0.25990012, 0.18507941, -0.028005727, -0.002233118, -0.009115219, 0
99, 1808855475, 0.8592785, 0.39981472, 0.259843, 0.18512283, -0.022755183, -0.026978014, -0.0075387955, 0
100, 1808872142, 0.8592801, 0.3997343, 0.25984317, 0.18528908, -0.014155746, 0.011610157, 9.393692E-4, 0
101, 1808888809, 0.8593038, 0.399629, 0.25981638, 0.18544395, -0.015177424, 0.02251379, 0.010878563, 0
102, 1808905476, 0.8593416, 0.39954567, 0.2597368, 0.18555915, -0.011152626, 0.017865838, 0.01572895, 0
103, 1808922143, 0.8592639, 0.39936438, 0.25987178, 0.1861192, -0.025460584, 4.5306075E-4, 0.004807472, 0
104, 1808938810, 0.8592791, 0.3992836, 0.2598406, 0.18626572, -0.027088653, -0.006880623, -0.020551682, 0
105, 1808955477, 0.85933775, 0.39916915, 0.25976095, 0.18635197, -0.027260534, 3.8891256E-5, -0.0036172867, 0
106, 1808972144, 0.85936236, 0.39899662, 0.25975943, 0.18660975, -0.013752081, -0.018948982, -0.008972168, 0
107, 1808988811, 0.85937876, 0.39889967, 0.2597746, 0.18672031, 0.009625362, 0.0065775393, -0.016633034, 0
108, 1809005478, 0.859331, 0.39880615, 0.25992465, 0.18693085, 0.019449651, 0.02528021, 0.016340256, 0
109, 1809022145, 0.859354, 0.39880204, 0.25990424, 0.1868623, -0.008396041, 0.038939532, 0.01490593, 0
110, 1809038812, 0.859407, 0.39870447, 0.25983986, 0.18691644, -0.031232359, 0.02870778, 0.0058603287, 0
111, 1809055479, 0.8594356, 0.3985638, 0.25981206, 0.18712407, -0.032466374, 0.024915436, -0.007824898, 0
112, 1809072146, 0.85942906, 0.39845726, 0.25981575, 0.18737532, -0.058411982, 0.02687721, -7.6293945E-5, 0
113, 1809088813, 0.8595328, 0.39861098, 0.25951955, 0.18698242, -0.027498128, 0.01725453, -5.912781E-4, 0
114, 1809105480, 0.85953796, 0.39864922, 0.25942552, 0.18700756, -0.0050648036, -0.0090551805, -0.0027046204, 0
115, 1809122147, 0.8595875, 0.3986701, 0.2592828, 0.18693306, -0.015632495, -0.01706946, -0.009057999, 0
116, 1809138814, 0.85966605, 0.39860436, 0.25917485, 0.18686235, -0.0250187, 0.005886661, -0.004545212, 0
117, 1809155481, 0.8597342, 0.39845845, 0.25912914, 0.18692318, -0.056113597, 0.019956354, 0.010079384, 0
118, 1809172148, 0.85976094, 0.39831558, 0.25910953, 0.18713146, -0.040497866, 0.04881165, 0.024790764, 0
119, 1809188815, 0.8597938, 0.3982637, 0.25901857, 0.18721686, -0.024641633, 0.06044975, 0.0044612885, 0
120, 1809205482, 0.8598255, 0.39829057, 0.25885478, 0.18724076, -0.038361304, 0.038288888, 0.022859573, 0
121, 1809222149, 0.8599955, 0.39847678, 0.25839758, 0.18669435, -0.020600295, 0.0033515769, -0.0143013, 0
122, 1809238816, 0.85999334, 0.3983963, 0.25835443, 0.18693575, -0.022925723, -0.0017016041, -0.029569626, 0
123, 1809255483, 0.85999054, 0.39830703, 0.2583609, 0.1871299, -0.005203605, -0.0025636936, -0.013866425, 0
124, 1809272150, 0.8600938, 0.39829373, 0.2582079, 0.18689473, -0.013763704, 0.0034255595, 0.005256653, 0
125, 1809288817, 0.8601074, 0.39818114, 0.25823298, 0.18703689, -0.030726103, 0.017906293, 0.018051147, 0
126, 1809305484, 0.86015725, 0.398138, 0.25814795, 0.18701696, -0.034122605, 0.009440294, 0.02990532, 0
127, 1809322151, 0.8602609, 0.3981818, 0.25791582, 0.1867673, -0.033094, -0.0017369192, 0.026247025, 0
128, 1809338818, 0.86028594, 0.3981633, 0.25781414, 0.1868317, -0.022246469, 0.017781796, 0.005631447, 0
129, 1809355485, 0.8603067, 0.3981742, 0.2577208, 0.1868419, -0.02842526, -0.005822289, -0.005265236, 0
130, 1809372152, 0.8603502, 0.39818665, 0.25761563, 0.18676041, -0.014686366, -0.0063068653, -0.012353897, 0
131, 1809388819, 0.86035424, 0.3981239, 0.25764388, 0.18683614, -0.028460128, 0.006392694, -3.8146973E-5, 0
132, 1809405486, 0.86037284, 0.39808688, 0.2576495, 0.18682158, -0.023996575, 0.00697651, 0.003118515, 0
133, 1809422153, 0.86040884, 0.3980537, 0.25761098, 0.18677919, -0.015979612, 0.030110324, 0.008842468, 0
134, 1809438820, 0.8604223, 0.39800557, 0.25759268, 0.18684502, -0.007147274, 0.026996342, 0.009003639, 0
135, 1809455487, 0.8604515, 0.39803928, 0.257499, 0.18676807, -0.00861106, 0.010470465, -0.0046920776, 0
136, 1809472154, 0.8604418, 0.39803663, 0.25749445, 0.18682484, -0.030415643, 0.024487857, 0.0032901764, 0
137, 1809488821, 0.8604716, 0.39801222, 0.25744185, 0.18681228, -0.040355265, 0.019163778, -0.002149582, 0
138, 1809505488, 0.86052185, 0.39800525, 0.25735137, 0.18672036, -0.03614808, 0.00990833, -0.0013895035, 0
139, 1809522155, 0.860545, 0.39796618, 0.25732854, 0.18672839, -0.03758393, 0.008978963, 1.04904175E-5, 0
140, 1809538822, 0.86053675, 0.3979772, 0.2573462, 0.18671836, -0.03290446, 0.018845718, -0.007801056, 0
141, 1809555489, 0.86047924, 0.3979522, 0.25746086, 0.18687874, -0.059954893, 0.014468664, 0.015695572, 0
142, 1809572156, 0.86057633, 0.39814058, 0.25723946, 0.18633428, -0.04220841, 0.012864064, 0.01294899, 0
143, 1809588823, 0.86055434, 0.3981924, 0.25725326, 0.18630582, -0.033220507, -0.013457045, -0.01113224, 0
144, 1809605490, 0.86055833, 0.39823094, 0.25723866, 0.18622491, -0.042659458, 0.0039461213, -0.014307976, 0
145, 1809622157, 0.8606489, 0.39832085, 0.25707012, 0.1858467, -0.04054324, 0.00139785, 0.0021047592, 0
146, 1809638824, 0.8606679, 0.39828753, 0.25704524, 0.18586506, -0.04982752, 0.018903608, 0.0056848526, 0
147, 1809655491, 0.8606964, 0.3983271, 0.2569527, 0.18577598, -0.049829755, 0.0028124636, -0.012269974, 0
148, 1809672158, 0.8607001, 0.39831674, 0.25693718, 0.18580252, -0.056244355, 0.020058723, 0.011127472, 0
149, 1809688825, 0.8607181, 0.39828584, 0.2569267, 0.18579994, -0.04250881, 0.009198005, -4.7779083E-4, 0
150, 1809705492, 0.86073375, 0.39818344, 0.25695804, 0.18590324, -0.04881098, -0.0076392256, -0.025867462, 0
151, 1809722159, 0.86074525, 0.3981123, 0.25703233, 0.18589933, -0.011386421, -0.011134074, -0.021115303, 0
152, 1809738826, 0.860713, 0.3981126, 0.25717026, 0.18585764, -0.015275546, 0.039314587, 0.003850937, 0
153, 1809755493, 0.86067295, 0.3981193, 0.25730786, 0.18583821, -0.02851757, 0.048096858, 0.024839401, 0
154, 1809772160, 0.86068076, 0.39806086, 0.25734097, 0.18588188, -0.049533825, 0.04104078, 0.032105446, 0
155, 1809788827, 0.8607454, 0.39803147, 0.25722426, 0.18580718, -0.06232994, 0.018052025, 0.012717247, 0
156, 1809805494, 0.8607681, 0.39800358, 0.25715747, 0.18585378, -0.08398678, 0.0015138532, -0.0067481995, 0
157, 1809822161, 0.8607662, 0.39804867, 0.25713316, 0.18579954, -0.05433086, 0.010818921, -0.014271736, 0
158, 1809838828, 0.8607329, 0.3979975, 0.25720838, 0.18595904, -0.018716304, 0.021117505, -0.01554203, 0
159, 1809855495, 0.8607509, 0.39790577, 0.25722378, 0.18605076, -0.037005477, 0.036429707, -0.004972458, 0
160, 1809872162, 0.8607664, 0.3977706, 0.25726584, 0.18621007, -0.048833333, 0.05629442, 0.02401638, 0
161, 1809888829, 0.86078835, 0.39771965, 0.25722843, 0.18626912, -0.06988356, 0.07060506, 0.022201538, 0
162, 1809905496, 0.8607918, 0.39773402, 0.25715235, 0.18632768, -0.082040876, 0.049234316, 0.030751228, 0
163, 1809922163, 0.8607161, 0.3977022, 0.25719833, 0.18668155, -0.063498914, -0.002467583, 0.0056037903, 0
164, 1809938830, 0.8606932, 0.3977719, 0.25712878, 0.18673456, -0.031002142, -0.016859582, -0.011548996, 0
165, 1809955497, 0.8606346, 0.39774275, 0.25719196, 0.18697906, -0.008393358, -0.034643836, -0.019007683, 0
166, 1809972164, 0.8606433, 0.39769828, 0.25720847, 0.18701066, -0.0110263415, -0.030092442, -0.02848816, 0
167, 1809988831, 0.86065936, 0.39771107, 0.25722378, 0.18688858, -0.014254315, -0.027963035, -9.212494E-4, 0
168, 1810005498, 0.86071914, 0.39777076, 0.2571447, 0.18659581, -0.015328965, -0.039312575, 0.0156059265, 0
169, 1810022165, 0.8608237, 0.3977221, 0.2570381, 0.18636334, -0.043753557, 0.004996185, 0.015475273, 0
170, 1810038832, 0.86094123, 0.39761382, 0.25689894, 0.1862433, -0.0540765, 0.007497966, 0.00644207, 0
171, 1810055499, 0.8609957, 0.3974437, 0.25686312, 0.1864041, -0.06969067, 0.04979712, 0.0015134811, 0
172, 1810072166, 0.86108786, 0.3975095, 0.25665858, 0.18611927, -0.071948595, 0.09446999, -0.017402649, 0
173, 1810088833, 0.8610508, 0.39756635, 0.25665057, 0.18618017, -0.05442317, 0.05534449, -0.02168274, 0
174, 1810105500, 0.8610062, 0.3976443, 0.25667724, 0.18618324, -0.040770777, 0.027331611, -0.013016701, 0
175, 1810122167, 0.8609622, 0.39762846, 0.25676483, 0.18630008, -0.039544806, 0.027746229, -0.012816429, 0
176, 1810138834, 0.86097383, 0.39759848, 0.25680324, 0.18625738, -0.03490736, -0.0027905593, 0.01530838, 0
177, 1810155501, 0.8609875, 0.39749688, 0.25686613, 0.18632439, -0.032654125, 0.040300727, 0.014249802, 0
178, 1810172168, 0.86106765, 0.39750358, 0.25676507, 0.18607894, -0.028460799, 0.061120957, 0.011238098, 0
179, 1810188835, 0.861082, 0.3975027, 0.2567385, 0.18605033, -0.03919456, 0.06745017, 0.0115299225, 0
180, 1810205502, 0.8610667, 0.3975263, 0.25672936, 0.18608372, -0.060480595, 0.064797744, 0.0073623657, 0
181, 1810222169, 0.861048, 0.3976024, 0.25670654, 0.18603879, -0.06262922, 0.033382107, -0.006529808, 0
182, 1810238836, 0.86100596, 0.39759585, 0.25678065, 0.18614522, -0.0453662, 0.025843015, -0.0028982162, 0
183, 1810255503, 0.86107326, 0.3976587, 0.25668296, 0.18583454, -0.035388805, 0.031986717, -0.016993523, 0
184, 1810272170, 0.86102986, 0.39761645, 0.25680366, 0.18595901, -0.038399972, 0.044690076, -2.0503998E-4, 0
185, 1810288837, 0.86101806, 0.3976537, 0.2568576, 0.18585931, -0.060431868, 0.0494889, -0.0078725815, 0
186, 1810305504, 0.8610112, 0.39778644, 0.2568446, 0.18562524, -0.054648023, 0.041454278, 0.001332283, 0
187, 1810322171, 0.8610555, 0.39797464, 0.25671273, 0.18519802, -0.05522871, 0.00738755, -0.0014781952, 0
188, 1810338838, 0.86103487, 0.39800522, 0.25674495, 0.18518364, -0.04289236, 0.019426629, 0.0024442673, 0
189, 1810355505, 0.86105275, 0.39793706, 0.25676057, 0.18522538, -0.056463394, 0.02709983, 0.01778698, 0
190, 1810372172, 0.8611055, 0.39787188, 0.256699, 0.1852052, -0.04614157, 0.042116992, 0.008553505, 0
191, 1810388839, 0.8611533, 0.3979449, 0.2565784, 0.18499309, -0.065050766, 0.04420997, -0.010894775, 0
192, 1810405506, 0.8611333, 0.39801812, 0.25660133, 0.18489689, -0.057387173, 0.050711513, -0.008639336, 0
193, 1810422173, 0.8610638, 0.3980087, 0.2567421, 0.18504588, -0.045448005, 0.028141174, 0.018339157, 0
194, 1810438840, 0.8610415, 0.39801055, 0.25678262, 0.18508945, -0.06878187, -0.007833011, 0.003004074, 0
195, 1810455507, 0.8610176, 0.3980033, 0.2568324, 0.18514669, -0.048606694, -0.012429556, -0.029216766, 0
196, 1810472174, 0.8609638, 0.39799488, 0.25698507, 0.18520275, -0.03960985, 0.012520973, -0.004430771, 0
197, 1810488841, 0.8609643, 0.39805222, 0.25703192, 0.18501247, -0.025244, 0.011245607, 0.017882347, 0
198, 1810505508, 0.8609504, 0.398013, 0.25711545, 0.18504567, -0.03735751, 0.0058719087, 0.031669617, 0
199, 1810522175, 0.8610191, 0.39800352, 0.25704357, 0.18484645, -0.06310464, 0.024145434, 0.033115387, 0
200, 1810538842, 0.8610755, 0.39798185, 0.25698122, 0.18471675, -0.07777022, 0.0391322, 0.020620346, 0
201, 1810555509, 0.86116654, 0.39803395, 0.25678715, 0.18445033, -0.0897961, 0.038783744, 0.028819084, 0
202, 1810572176, 0.86114895, 0.3980539, 0.25675708, 0.18453042, -0.07857441, 0.018565433, -0.013635635, 0
203, 1810588843, 0.86116093, 0.3981345, 0.25668266, 0.18440402, -0.05266591, 0.017359134, -0.006772995, 0
204, 1810605510, 0.86119, 0.39817345, 0.25662655, 0.1842625, -0.025096258, 0.028447611, 0.0014686584, 0
205, 1810622177, 0.8611988, 0.3981247, 0.2566578, 0.18428357, -0.048228286, 0.022019155, -0.010998726, 0
206, 1810638844, 0.86118466, 0.39806938, 0.256722, 0.18437958, -0.06254652, 0.022370294, 0.0054512024, 0
207, 1810655511, 0.8611303, 0.3980165, 0.25684103, 0.18458138, -0.06007447, 0.022903597, 0.008097649, 0
208, 1810672178, 0.86109906, 0.39795363, 0.25690812, 0.1847693, -0.05250677, 0.01016604, 0.03109169, 0
209, 1810688845, 0.86112094, 0.39795622, 0.25681838, 0.18478659, -0.06478679, 0.011029918, 0.016242981, 0
210, 1810705512, 0.8611649, 0.3979854, 0.25667188, 0.18472177, -0.06643051, 0.0013200676, -0.012870789, 0
211, 1810722179, 0.8611886, 0.3979983, 0.25661114, 0.18466815, -0.03688813, 0.014727939, -0.02080059, 0
212, 1810738846, 0.86121714, 0.39800844, 0.25657296, 0.18456662, -0.026906043, 0.008549147, -0.013329506, 0
213, 1810755513, 0.8612211, 0.397961, 0.25660828, 0.18460162, -0.05265943, 0.0043645375, -0.0066804886, 0
214, 1810772180, 0.86123896, 0.3978378, 0.25666896, 0.18469942, -0.054256875, 0.045326862, 0.024448395, 0
215, 1810788847, 0.8612861, 0.39775804, 0.25664127, 0.18468942, -0.05776111, 0.046174202, 0.03286934, 0
216, 1810805514, 0.861284, 0.39768898, 0.25666183, 0.18481956, -0.06965826, 0.05057763, 0.008690834, 0
217, 1810822181, 0.8612864, 0.39774674, 0.25658622, 0.18478923, -0.06130692, 0.037319288, 0.0021123886, 0
218, 1810838848, 0.8612488, 0.39777187, 0.25659525, 0.18489781, -0.052257553, 0.030428383, -0.003074646, 0
219, 1810855515, 0.8612544, 0.39775628, 0.25658882, 0.18491353, -0.03801307, 0.014199555, -0.017513275, 0
220, 1810872182, 0.86127913, 0.39773697, 0.25657475, 0.1848599, -0.03873323, 0.030376974, -0.008104324, 0
221, 1810888849, 0.86126375, 0.39767018, 0.25665656, 0.18496141, -0.029619267, 0.029130667, 0.012058258, 0
222, 1810905516, 0.86125374, 0.3976367, 0.25670934, 0.18500692, -0.020408073, 0.039310116, 0.0050554276, 0
223, 1810922183, 0.86125, 0.39760882, 0.25672436, 0.18506387, -0.06177183, 0.03831705, 0.020170212, 0
224, 1810938850, 0.8612926, 0.3976495, 0.25662333, 0.18491751, -0.060842462, 0.038165953, 0.007689476, 0
225, 1810955517, 0.86130047, 0.39765272, 0.25659525, 0.18491285, -0.049394127, 0.043059323, 0.019237518, 0
226, 1810972184, 0.86129016, 0.39764878, 0.2566011, 0.18496153, -0.03425783, 0.04310671, 0.010119438, 0
227, 1810988851, 0.86131686, 0.3976833, 0.2565453, 0.18484057, -0.023264347, 0.025770374, -0.008142471, 0
228, 1811005518, 0.8613168, 0.39776614, 0.25650892, 0.18471277, -0.039825093, 0.007911911, -0.007051468, 0
229, 1811022185, 0.86127836, 0.39780456, 0.25656885, 0.1847264, -0.04942475, 0.0071441447, 0.011239052, 0
230, 1811038852, 0.86126596, 0.39780945, 0.25661203, 0.18471362, -0.041772112, 0.022010885, 0.016137123, 0
231, 1811055519, 0.86128354, 0.3978589, 0.2565638, 0.18459173, -0.047141787, -0.0076208976, 0.016194344, 0
232, 1811072186, 0.8612648, 0.3978844, 0.25659183, 0.18458538, -0.04862122, 0.017746259, -0.013504028, 0
233, 1811088853, 0.86116004, 0.39780077, 0.25682285, 0.18493238, -0.043384757, 0.05321106, -0.012085915, 0
234, 1811105520, 0.861197, 0.39786592, 0.25676125, 0.18470566, -0.061022837, 0.058672823, 0.012351036, 0
235, 1811122187, 0.8612107, 0.397894, 0.25668612, 0.18468614, -0.08067343, 0.043399286, 0.030345917, 0
236, 1811138854, 0.86119074, 0.39795333, 0.25661877, 0.18474455, -0.09419328, 0.039808776, 0.012509346, 0
237, 1811155521, 0.86115426, 0.3980427, 0.2565815, 0.18477406, -0.062395208, 0.016778894, -0.021183014, 0
238, 1811172188, 0.8611429, 0.39806718, 0.25654772, 0.1848213, -0.0477484, 0.027202196, 0.0011253357, 0
239, 1811188855, 0.86117697, 0.39808586, 0.2564353, 0.1847784, -0.056259107, 0.01768345, -0.016423225, 0
240, 1811205522, 0.8611719, 0.39810732, 0.2564126, 0.18478672, -0.051388983, 2.4742883E-4, -0.022529602, 0
241, 1811222189, 0.86109155, 0.39811683, 0.25657538, 0.1849146, -0.01930526, 0.0038450933, -0.0104551315, 0
242, 1811238856, 0.8610237, 0.3980687, 0.25677702, 0.18505421, 0.0028046407, 0.014875234, 0.013765335, 0
243, 1811255523, 0.86105484, 0.39799967, 0.25680977, 0.18501301, -0.025513334, 0.045183368, 0.042303085, 0
244, 1811272190, 0.86112696, 0.3978965, 0.2567426, 0.18499203, -0.06995576, 0.082770646, 0.025083542, 0
245, 1811288857, 0.86122984, 0.39786085, 0.25654274, 0.18486762, -0.09378246, 0.059784353, 0.01465416, 0
246, 1811305524, 0.86126536, 0.39792448, 0.25634673, 0.18483643, -0.09959268, 0.048749965, -0.012386322, 0
247, 1811322191, 0.8611915, 0.3980115, 0.2563286, 0.1850181, -0.050711066, -0.010769748, -0.010450363, 0
248, 1811338858, 0.8611628, 0.39812788, 0.25629458, 0.18494862, -0.0024805467, -0.02024871, 0.005268097, 0
249, 1811355525, 0.8611688, 0.3980609, 0.25634527, 0.1849946, -0.0023582852, 0.0074148187, 0.008078575, 0
250, 1811372192, 0.8611749, 0.39789233, 0.2564487, 0.18518537, -0.03264429, 0.01126997, -0.018450737, 0
251, 1811388859, 0.86117345, 0.39784294, 0.25652143, 0.18519737, -0.05163842, 0.017032357, -0.011297226, 0
252, 1811405526, 0.86122376, 0.397949, 0.25644556, 0.18484037, -0.06968061, 0.031257167, 0.019992828, 0
253, 1811422193, 0.8611989, 0.39787185, 0.25652647, 0.18500975, -0.06346628, 0.047324397, 0.034828186, 0
254, 1811438860, 0.86122775, 0.39781794, 0.25643298, 0.18512131, -0.075010724, 0.027301436, 0.03066349, 0
255, 1811455527, 0.8612674, 0.39785886, 0.2562554, 0.18509509, -0.06306351, 0.032664184, -0.0019111633, 0
256, 1811472194, 0.86127335, 0.39788607, 0.25618175, 0.18511108, -0.03958817, 0.043262944, -0.028450966, 0
257, 1811488861, 0.86130327, 0.39782897, 0.25614408, 0.18514639, -0.029884577, 0.053161215, -0.02570057, 0
258, 1811505528, 0.86135674, 0.39772674, 0.25610685, 0.18516834, -0.054571807, 0.027753605, -0.0072755814, 0
259, 1811522195, 0.86138964, 0.3976595, 0.25608248, 0.18519326, -0.08234262, 0.036497653, -0.0039920807, 0
260, 1811538862, 0.8614206, 0.3976715, 0.25604475, 0.185076, -0.05025689, 0.015900042, -0.001625061, 0
261, 1811555529, 0.8613988, 0.39765063, 0.25610214, 0.18514264, -0.055948645, 0.017875224, 0.019296646, 0
262, 1811572196, 0.86139655, 0.39758325, 0.2561218, 0.18527031, -0.01771139, 0.03167536, 0.032917976, 0
263, 1811588863, 0.86143625, 0.39751232, 0.25603512, 0.18535803, -0.03628934, 0.022548657, 0.025652885, 0
264, 1811605530, 0.8615207, 0.39751977, 0.25583622, 0.18522403, -0.057262007, 0.027312836, -0.010126114, 0
265, 1811622197, 0.8615318, 0.39750496, 0.25579935, 0.18525508, -0.059046984, 0.008455272, -0.020673752, 0
266, 1811638864, 0.86158043, 0.39760572, 0.25567713, 0.18498124, -0.029131785, 0.0039546145, -0.03542137, 0
267, 1811655531, 0.8615738, 0.39767325, 0.25568876, 0.18485115, -0.022806145, -0.012904967, -0.010723114, 0
268, 1811672198, 0.8615398, 0.39766806, 0.25579056, 0.18487996, -0.017124891, -0.007104806, -0.001461029, 0
269, 1811688865, 0.8615591, 0.3976358, 0.2558289, 0.18480642, -0.024762107, 0.015873443, 0.031359673, 0
270, 1811705532, 0.8615552, 0.39750418, 0.2559243, 0.18497568, -0.049020637, 0.04282821, 0.036423683, 0
271, 1811722199, 0.86161506, 0.39746776, 0.25582877, 0.18490732, -0.049663015, 0.038040116, 0.016057014, 0
272, 1811738866, 0.86162657, 0.39750484, 0.2557613, 0.18486713, -0.06861848, 0.042311, -0.007801056, 0
273, 1811755533, 0.86159056, 0.39753693, 0.25576967, 0.18495432, -0.067544274, 0.04164404, 0.017548561, 0
274, 1811772200, 0.8615736, 0.3975835, 0.2557388, 0.18497622, -0.063057475, 0.012604343, -2.708435E-4, 0
275, 1811788867, 0.8615644, 0.39761826, 0.2557186, 0.18497197, -0.062691584, 0.014548235, -0.0023298264, 0
276, 1811805534, 0.86154014, 0.39766556, 0.25576174, 0.1849237, -0.04775153, 4.280273E-4, -0.017598152, 0
277, 1811822201, 0.86146, 0.39765242, 0.2559685, 0.18503934, -0.035005927, 0.0041598, -0.015536308, 0
278, 1811838868, 0.86142606, 0.3975997, 0.25612983, 0.18508746, -0.024210254, 0.011531704, 0.010421753, 0
279, 1811855535, 0.8614281, 0.3975477, 0.2561971, 0.1850968, -0.06355725, 0.034891713, 0.033104897, 0
280, 1811872202, 0.86146545, 0.39755332, 0.2561286, 0.18500538, -0.08397091, 0.05660801, 0.036506653, 0
281, 1811888869, 0.86143434, 0.3975329, 0.25613877, 0.18517947, -0.062365927, 0.040407564, 0.012956619, 0
282, 1811905536, 0.8613964, 0.39761084, 0.25611183, 0.18522605, -0.056729153, 0.039486915, 0.004963875, 0
283, 1811922203, 0.8613834, 0.3976725, 0.2560941, 0.18517841, -0.034442674, 0.018947864, -0.013843536, 0
284, 1811938870, 0.8613667, 0.39769462, 0.25611746, 0.18517666, -0.040937964, 0.0195585, -0.009736061, 0
285, 1811955537, 0.8613458, 0.3976884, 0.25617522, 0.18520707, -0.047131058, -0.020724792, -0.008437157, 0
286, 1811972204, 0.86132187, 0.39763272, 0.25629792, 0.18526824, -0.038929697, -0.008230418, -3.232956E-4, 0
287, 1811988871, 0.86130434, 0.39763847, 0.25638825, 0.18521222, -0.03769859, 0.020399356, 0.025740623, 0
288, 1812005538, 0.8613244, 0.3976059, 0.25641006, 0.18515861, -0.038354598, 0.02805557, 0.034540176, 0
289, 1812022205, 0.8613778, 0.3975508, 0.25636128, 0.18509638, -0.058455568, 0.044522885, 0.011857986, 0
290, 1812038872, 0.8614124, 0.39752185, 0.25631624, 0.18505989, -0.065860555, 0.05260869, 0.0074443817, 0
291, 1812055539, 0.86140954, 0.3975339, 0.2563146, 0.18504979, -0.05206913, 0.03774575, -0.010903358, 0
292, 1812072206, 0.86135715, 0.39753455, 0.25639138, 0.18518563, -0.0681634, 0.041932147, 0.011842728, 0
293, 1812088873, 0.86132115, 0.39755693, 0.25643578, 0.1852434, -0.052985758, 0.01054333, -0.0054912567, 0
294, 1812105540, 0.8613254, 0.39754835, 0.25642765, 0.18525311, -0.04658837, 0.006523002, -0.010591507, 0
295, 1812122207, 0.8613442, 0.39748904, 0.25643876, 0.18527791, -0.057675954, 0.022948299, 0.0065965652, 0
296, 1812138874, 0.86135393, 0.39744207, 0.2564613, 0.18530257, -0.04327658, 0.027163083, 0.0063972473, 0
297, 1812155541, 0.86132735, 0.39738125, 0.25653085, 0.18546002, -0.051453352, 0.03889908, 0.0029125214, 0
298, 1812172208, 0.8613285, 0.39737907, 0.25652444, 0.18546844, -0.04300881, 0.032251354, -0.008138657, 0
299, 1812188875, 0.86134064, 0.39740273, 0.2564788, 0.18542428, -0.046527576, 0.038045704, -0.0026350021, 0
300, 1812205542, 0.8613382, 0.39740986, 0.25646937, 0.18543355, -0.048643123, 0.031377196, 0.033123016, 0
301, 1812222209, 0.8613266, 0.3973807, 0.2564832, 0.18553025, -0.040600903, 0.0026497461, 0.0053215027, 0
302, 1812238876, 0.8613199, 0.39736637, 0.25650585, 0.18556069, -0.03625626, 0.008237793, -0.012658119, 0
303, 1812255543, 0.8613275, 0.39737567, 0.256491, 0.18552585, -0.039302517, 0.0064011877, -0.020580292, 0
304, 1812272210, 0.86136335, 0.39735535, 0.25646427, 0.18543996, -0.044973712, 0.005850228, 0.017300606, 0
305, 1812288877, 0.86139977, 0.39732713, 0.256432, 0.18537588, -0.047359042, 0.035321977, 0.028213501, 0
306, 1812305544, 0.8614213, 0.3972928, 0.25641704, 0.18537028, -0.059776753, 0.042750206, 0.025121689, 0
307, 1812322211, 0.8614225, 0.39728665, 0.25640935, 0.18538861, -0.039698135, 0.06834959, 0.0043325424, 0
308, 1812338878, 0.8613908, 0.3973331, 0.25640947, 0.18543601, -0.03777168, 0.039218254, -0.0014476776, 0
309, 1812355545, 0.86135507, 0.39738077, 0.25642475, 0.1854792, -0.07490567, 0.0028254273, -0.004588127, 0
310, 1812372212, 0.861298, 0.39737892, 0.25651538, 0.18562286, -0.05588852, -0.0156696, 0.0010433197, 0
311, 1812388879, 0.8613028, 0.39739993, 0.25652343, 0.18554462, -0.016166916, -0.0028046407, -0.0031147003, 0
312, 1812405546, 0.8613311, 0.39738083, 0.25651878, 0.18545976, -0.020228816, 0.017086225, 0.0073080063, 0
313, 1812422213, 0.8613718, 0.39740586, 0.256455, 0.18530513, -0.011796343, 0.013934468, -0.014442444, 0
314, 1812438880, 0.86138415, 0.39743745, 0.25642508, 0.18522197, -0.049596407, 0.03648469, 0.012840271, 0
315, 1812455547, 0.86137855, 0.3974459, 0.25642788, 0.18522601, -0.047252875, 0.019675622, 0.027475357, 0
316, 1812472214, 0.86139584, 0.39746055, 0.25638187, 0.18517777, -0.04172115, 0.045641568, 0.01055336, 0
317, 1812488881, 0.86141974, 0.39746436, 0.25632855, 0.18513256, -0.05104723, 0.033243082, -0.008849144, 0
318, 1812505548, 0.8614616, 0.3975092, 0.25625023, 0.18494979, -0.050539184, 0.044726953, 0.001999855, 0
319, 1812522215, 0.86144763, 0.3975351, 0.25629094, 0.18490261, -0.055378463, 0.016598295, -6.3610077E-4, 0
320, 1812538882, 0.86141044, 0.39753172, 0.25640172, 0.18492962, -0.02951198, 0.02927148, 0.025943756, 0
321, 1812555549, 0.8614241, 0.39760625, 0.2563842, 0.18473, -0.035050407, 0.010221695, 0.016566277, 0
322, 1812572216, 0.8614227, 0.39760852, 0.2563867, 0.18472807, -0.03580655, 0.015576841, 0.014390945, 0
323, 1812588883, 0.86144215, 0.39761105, 0.25633916, 0.18469802, -0.040560003, 0.017256988, 0.0010709763, 0
324, 1812605550, 0.86145896, 0.3976063, 0.2563138, 0.18466441, -0.050810307, 0.034100924, 0.005976677, 0
325, 1812622217, 0.8614469, 0.3975825, 0.25632823, 0.18475164, -0.055915117, 0.03338814, 5.722046E-6, 0
326, 1812638884, 0.86146575, 0.39759016, 0.25627124, 0.18472658, -0.07415735, 0.038743734, 0.0047311783, 0
327, 1812655551, 0.86149603, 0.39761963, 0.2561791, 0.18464977, -0.07535225, 0.031060701, -0.005718231, 0
328, 1812672218, 0.861498, 0.39765546, 0.2561262, 0.18463697, -0.0636889, 0.014184803, -0.003832817, 0
329, 1812688885, 0.8614819, 0.39766493, 0.25614953, 0.18465868, -0.03983448, 0.0019660199, -0.018538475, 0
330, 1812705552, 0.8614777, 0.39762574, 0.25620362, 0.18468837, -0.038873598, 0.012113955, 0.014202118, 0
331, 1812722219, 0.8614751, 0.39762008, 0.25622433, 0.18468408, -0.024452765, -0.0030683859, -0.018518448, 0
332, 1812738886, 0.8614691, 0.397567, 0.25628704, 0.18473938, -0.022823578, 0.014163569, -0.013261795, 0
333, 1812755553, 0.8614668, 0.39753264, 0.2563572, 0.18472575, -0.02484503, 0.039962105, 0.0112781525, 0
334, 1812772220, 0.8614721, 0.39752567, 0.2563747, 0.1846921, -0.04632552, 0.031297177, 0.027731895, 0
335, 1812788887, 0.8615262, 0.39753026, 0.25629938, 0.18453464, -0.059297986, 0.04076072, 0.004415512, 0
336, 1812805554, 0.86155635, 0.39748728, 0.2562889, 0.18450081, -0.037759833, 0.040115435, 0.027137756, 0
337, 1812822221, 0.8615779, 0.39747548, 0.2562662, 0.18445708, -0.05116301, 0.034033425, 0.01527977, 0
338, 1812838888, 0.86157477, 0.39749026, 0.25625673, 0.18445314, -0.05255661, 0.046543, 0.010708809, 0
339, 1812855555, 0.8615532, 0.3975268, 0.2562615, 0.1844684, -0.017027218, 0.008484328, -0.027639389, 0
340, 1812872222, 0.8615191, 0.39749277, 0.2563702, 0.18454984, -0.027895758, 0.011668494, -0.017912865, 0
341, 1812888889, 0.86147803, 0.39743796, 0.25651905, 0.18465294, -0.028271483, 0.040952045, 0.022935867, 0
342, 1812905556, 0.86146283, 0.39740437, 0.256608, 0.18467277, -0.030925477, 0.021896223, 0.028383255, 0
343, 1812922223, 0.86145926, 0.39740518, 0.25662792, 0.18465982, -0.04929757, 0.03869948, 0.014278412, 0
344, 1812938890, 0.8614917, 0.39741418, 0.25656843, 0.18457189, -0.042235233, 0.027186105, 0.0032596588, 0
345, 1812955557, 0.86152756, 0.39746368, 0.25647348, 0.18442951, -0.042625263, 0.028090438, 0.009782791, 0
346, 1812972224, 0.86153585, 0.39751717, 0.25639552, 0.1843841, -0.02246484, 0.020043524, 0.029557228, 0
347, 1812988891, 0.8615273, 0.39754564, 0.25635737, 0.18441604, -0.039958976, -0.0016642775, -0.008172989, 0
348, 1813005558, 0.8615276, 0.39752188, 0.25636613, 0.1844536, -0.03785639, 0.026274394, -0.012262344, 0
349, 1813022225, 0.8615466, 0.39750025, 0.2563625, 0.18441631, -0.031199057, 0.019012682, -0.024129868, 0
350, 1813038892, 0.86152804, 0.39751333, 0.2564013, 0.1844206, -0.054207478, 0.026000144, -0.0033311844, 0
351, 1813055559, 0.8614683, 0.39751214, 0.2565197, 0.18453766, -0.054839127, 0.014895351, 0.024482727, 0
352, 1813072226, 0.8614385, 0.3974918, 0.25658497, 0.18462983, -0.049455147, 0.016640764, 0.03314686, 0
353, 1813088893, 0.8614563, 0.39750335, 0.25653973, 0.18458515, -0.029449172, 0.014219894, 0.007971764, 0
354, 1813105560, 0.86144143, 0.3974886, 0.2565458, 0.18467745, -0.012828973, 0.0055297106, -0.010195732, 0
355, 1813122227, 0.86144084, 0.3975064, 0.25654814, 0.18463917, -0.03465613, 0.016188819, -0.01900196, 0
356, 1813138894, 0.8614067, 0.39754418, 0.25660303, 0.18464077, -0.032715816, -0.010959064, -0.010809898, 0
357, 1813155561, 0.86141235, 0.39758807, 0.2566158, 0.1845024, -0.036939763, -0.0272393, 0.019217491, 0
358, 1813172228, 0.86141944, 0.39757213, 0.25666103, 0.18444009, -0.016131824, 0.0047246167, 0.034356117, 0
359, 1813188895, 0.86146927, 0.39754036, 0.25661692, 0.18433739, -0.011221915, 0.0325265, 0.013563156, 0
360, 1813205562, 0.86153835, 0.39762336, 0.25647452, 0.18403369, -0.05149716, 0.023159742, 0.0013637543, 0
361, 1813222229, 0.8615098, 0.39769977, 0.25649014, 0.18398017, -0.038173106, 0.027882794, -0.014388084, 0
362, 1813238896, 0.86141306, 0.3978114, 0.25661844, 0.18401311, -0.044281047, -0.004884876, 0.02225399, 0
363, 1813255563, 0.8613377, 0.39789972, 0.2567263, 0.18402435, -0.044704825, 0.0012930224, 0.041072845, 0
364, 1813272230, 0.8613129, 0.3979058, 0.25678465, 0.18404594, -0.0150381755, 0.027916769, 0.013662338, 0
365, 1813288897, 0.86133105, 0.39793634, 0.25677186, 0.18391266, -0.0055489326, 0.043294907, -0.013861656, 0
366, 1813305564, 0.8612865, 0.39798415, 0.2568632, 0.18389036, -0.04832909, 0.064874634, -0.027740479, 0
367, 1813322231, 0.8612358, 0.39808702, 0.256937, 0.18380207, -0.06763189, 0.007488578, -0.010684967, 0
368, 1813338898, 0.8611637, 0.39817005, 0.2570484, 0.18380423, -0.0725684, -0.024093132, 0.010308266, 0
369, 1813355565, 0.861189, 0.3982515, 0.2570072, 0.18356651, -0.056968983, -0.020596271, 0.01991272, 0
370, 1813372232, 0.8612199, 0.39820683, 0.2570038, 0.18352284, -0.023405382, 0.028416319, 0.015281677, 0
371, 1813388899, 0.86126685, 0.39818504, 0.2569678, 0.18340066, -4.984339E-4, 0.06542336, 0.011676788, 0
372, 1813405566, 0.86124545, 0.39818734, 0.25702274, 0.18341894, -0.029807912, 0.055291966, -0.0071487427, 0
373, 1813422233, 0.8611902, 0.39823774, 0.25710768, 0.18345007, -0.047737673, 0.052979723, -0.02613163, 0
374, 1813438900, 0.86114275, 0.39831468, 0.2571678, 0.18342142, -0.046538975, 0.021551343, 0.005296707, 0
375, 1813455567, 0.8611434, 0.39841494, 0.25711638, 0.1832726, -0.049831767, 6.1734277E-4, 0.0165596, 0
376, 1813472234, 0.8611502, 0.39845356, 0.25706723, 0.18322583, -0.04747594, -0.0026810379, 0.0151844025, 0
377, 1813488901, 0.8611479, 0.3984194, 0.25709432, 0.18327306, -0.022056706, 0.014426644, -0.030008316, 0
378, 1813505568, 0.86112964, 0.39836657, 0.25719497, 0.18333277, -0.030755159, 0.03425023, -0.016573906, 0
379, 1813522235, 0.86109805, 0.39837968, 0.25727347, 0.18334195, -0.03573771, 0.009095413, 0.0040721893, 0
380, 1813538902, 0.86105406, 0.3984292, 0.2573488, 0.18333526, -0.04895381, 0.0018609689, 0.008337021, 0
381, 1813555569, 0.8610584, 0.39841646, 0.25738016, 0.18329862, -0.046131063, 0.03020107, 0.016492844, 0
382, 1813572236, 0.86109704, 0.3984004, 0.2573328, 0.18321854, -0.033682283, 0.02856585, 0.020407677, 0
383, 1813588903, 0.8611246, 0.39838615, 0.25729638, 0.18317077, -0.025702203, 0.049213305, 0.00621891, 0
384, 1813605570, 0.86111146, 0.39839968, 0.25732908, 0.1831569, -0.030995212, 0.037558895, -0.010569572, 0
385, 1813622237, 0.861077, 0.39841872, 0.25740874, 0.18316546, -0.04863016, 0.020828279, -0.0017795563, 0
386, 1813638904, 0.8610522, 0.39841387, 0.25748473, 0.183186, -0.042076986, 0.032701287, 0.027002335, 0
387, 1813655571, 0.8610639, 0.39838308, 0.25748008, 0.18320446, -0.04770772, 0.03336646, 0.014427185, 0
388, 1813672238, 0.8610754, 0.39833814, 0.25745195, 0.18328807, -0.051258896, 0.040107835, -0.0041160583, 0
389, 1813688905, 0.8610864, 0.3983703, 0.25738764, 0.18325667, -0.05205371, 0.027197503, -0.011395454, 0
390, 1813705572, 0.8610498, 0.3983857, 0.25741586, 0.18335623, -0.06460083, 0.040754683, -0.0075626373, 0
391, 1813722239, 0.8610192, 0.39843372, 0.25742102, 0.18338804, -0.03857297, 0.027858878, -0.005077362, 0
392, 1813738906, 0.8609846, 0.39844453, 0.25743866, 0.183502, -0.03633583, -0.022645662, 0.016555786, 0
393, 1813755573, 0.86098504, 0.3984236, 0.25741485, 0.18357894, -0.011034164, -0.01864031, 0.010482788, 0
394, 1813772240, 0.8610257, 0.39834836, 0.25735354, 0.18363748, -0.04047775, 6.434938E-4, -0.0037994385, 0
395, 1813788907, 0.8610368, 0.39829162, 0.25734612, 0.18371898, -0.019967306, -0.0014738444, -0.012244225, 0
396, 1813805574, 0.8610054, 0.3983258, 0.25737667, 0.18374906, -0.010053836, 0.018369412, -0.016433716, 0
397, 1813822241, 0.8609886, 0.39834806, 0.2573953, 0.1837535, -0.018108126, 0.0078196, 0.012505531, 0
398, 1813838908, 0.8610531, 0.39835164, 0.25727046, 0.18361865, -0.027157271, 0.02689375, 0.018954277, 0
399, 1813855575, 0.8611391, 0.39829576, 0.25710955, 0.18356171, -0.056527544, 0.03447173, 0.022650719, 0
400, 1813872242, 0.8611727, 0.39830872, 0.25700414, 0.18352386, -0.049792204, 0.042232327, 0.0061836243, 0
401, 1813888909, 0.8611344, 0.3983879, 0.25699612, 0.1835418, -0.026429513, 0.021670252, 0.0022678375, 0
402, 1813905576, 0.8610923, 0.3984686, 0.25700223, 0.1835557, -0.03780431, 0.0157409, 0.010661125, 0
403, 1813922243, 0.8611242, 0.39850527, 0.2569276, 0.18343087, -0.032951396, 0.0068307794, 0.010334969, 0
404, 1813938910, 0.86114204, 0.39849806, 0.2568805, 0.1834294, -0.035912275, 0.009127375, -0.013745308, 0
405, 1813955577, 0.86116284, 0.39851004, 0.25684518, 0.18335497, -0.029667992, 0.011143238, -0.006828308, 0
406, 1813972244, 0.86111444, 0.39853063, 0.25692236, 0.18342906, -0.040629737, 0.007299039, 0.0014038086, 0
407, 1813988911, 0.8611115, 0.3985449, 0.25692153, 0.18341315, -0.022653038, 0.024828266, 0.024806976, 0
408, 1814005578, 0.8611581, 0.39853445, 0.25681886, 0.18336117, -0.042644482, 0.019592252, 0.012239456, 0
409, 1814022245, 0.86121947, 0.39854777, 0.2566494, 0.1832811, -0.039836492, 0.0046472815, 0.0034618378, 0
410, 1814038912, 0.86121905, 0.3986434, 0.25654995, 0.18321455, -0.04704076, 0.016675407, -0.011536598, 0
411, 1814055579, 0.86118966, 0.39874524, 0.2565227, 0.1831693, -0.0107811475, -0.01174717, -0.007282257, 0
412, 1814072246, 0.86117655, 0.3988299, 0.25651544, 0.18305631, -0.003396056, -0.0027179176, -0.0054779053, 0
413, 1814088913, 0.86116475, 0.3988233, 0.25656426, 0.1830581, 3.3683403E-4, 0.021691933, 0.011156082, 0
414, 1814105580, 0.86113447, 0.39884806, 0.25661194, 0.18307967, -0.020615494, 0.015626239, 0.037604332, 0
415, 1814122247, 0.86111665, 0.39892092, 0.25658965, 0.18303585, -0.027759638, 0.006435832, 0.02208519, 0
416, 1814138914, 0.861119, 0.39898443, 0.2565197, 0.18298438, -0.042123474, 2.6955662E-4, 0.004599571, 0
417, 1814155581, 0.8611182, 0.39902875, 0.25645995, 0.18297508, -0.037190992, -0.021267705, -0.0064764023, 0
418, 1814172248, 0.8611506, 0.39906436, 0.2563647, 0.18287814, -0.039556205, -0.006552506, -0.0017204285, 0
419, 1814188915, 0.861184, 0.399107, 0.25629374, 0.18272789, -0.027523609, 0.04402736, -0.011667252, 0
420, 1814205582, 0.86117595, 0.39921686, 0.25626856, 0.18256103, -0.0018629805, 0.03957498, -0.011454582, 0
421, 1814222249, 0.8611376, 0.39932197, 0.25629917, 0.18246885, -0.0013325842, 0.034909148, 0.0067415237, 0
422, 1814238916, 0.8611099, 0.39937493, 0.25633562, 0.18243274, -0.032581482, 0.028753377, 0.010942459, 0
423, 1814255583, 0.86109614, 0.39939293, 0.2563275, 0.18246967, -0.046266064, 0.046706386, 0.0073957443, 0
424, 1814272250, 0.86112833, 0.3994419, 0.25618678, 0.1824078, -0.0699571, 0.024221428, 0.017843246, 0
425, 1814288917, 0.8610942, 0.39951047, 0.256129, 0.18250024, -0.050319694, -0.006717682, 0.0055561066, 0
426, 1814305584, 0.8611068, 0.3995902, 0.25603998, 0.18239073, -0.034135345, 0.03050326, -0.013298988, 0
427, 1814322251, 0.8610763, 0.39961255, 0.2560753, 0.18243621, -0.027000366, 0.010138995, -0.011440277, 0
428, 1814338918, 0.86104226, 0.39966258, 0.25610113, 0.18245064, -0.014689718, -0.028024279, -0.00789547, 0
429, 1814355585, 0.8609855, 0.3997253, 0.25619492, 0.18244949, -0.032403566, 0.0029637818, -0.013543129, 0
430, 1814372252, 0.8609556, 0.3997978, 0.25627133, 0.18232477, -0.018317334, 0.016347291, 0.03037262, 0
431, 1814388919, 0.8609704, 0.39982888, 0.25628626, 0.18216553, -0.01580259, 0.03208126, 0.020155907, 0
432, 1814405586, 0.8609999, 0.39982966, 0.256245, 0.18208283, -0.03457589, 0.043437954, 0.0055570602, 0
433, 1814422253, 0.8610082, 0.39988327, 0.25618184, 0.18201458, -0.0897304, 0.017742906, 0.007762909, 0
434, 1814438920, 0.86101466, 0.3999573, 0.25609812, 0.18193899, -0.06400673, 0.009714767, 0.00749588, 0
435, 1814455587, 0.8610373, 0.40000066, 0.2559753, 0.18190934, -0.040615655, 0.010863624, -0.007601738, 0
436, 1814472254, 0.8610653, 0.40003884, 0.25582945, 0.18189797, -0.025951866, -0.004510715, 0.004573822, 0
437, 1814488921, 0.86107075, 0.400098, 0.25572914, 0.1818837, -0.037284642, -0.011974706, -0.00855732, 0
438, 1814505588, 0.861071, 0.40007785, 0.2557249, 0.18193242, -0.021445844, 0.0074843313, -0.022497177, 0
439, 1814522255, 0.861067, 0.4000253, 0.2557867, 0.18198004, -0.0031575675, 0.03692501, -0.017463684, 0
440, 1814538922, 0.8610541, 0.3999961, 0.25582528, 0.18205117, -0.017093154, 0.04488766, 0.0071849823, 0
441, 1814555589, 0.86110204, 0.3999757, 0.25570613, 0.18203616, -0.061133474, 0.047315456, 0.008027077, 0
442, 1814572256, 0.8610517, 0.40007693, 0.2556914, 0.18207291, -0.06337106, 0.031255383, 0.012249947, 0
443, 1814588923, 0.8609479, 0.40027487, 0.25572217, 0.18208542, -0.024701757, -0.033270128, 0.016935349, 0
444, 1814605590, 0.86095613, 0.4003008, 0.25564167, 0.1821025, -0.018899584, -0.058646895, 0.02395153, 0
445, 1814622257, 0.8611265, 0.40013605, 0.25537926, 0.1820271, 0.006616654, -0.04162683, -0.028417587, 0
446, 1814638924, 0.86125183, 0.40003058, 0.25519717, 0.18192129, -0.010054506, 0.028092673, -0.048620224, 0
447, 1814655591, 0.8612539, 0.4000487, 0.25519723, 0.18187195, -0.042656552, 0.045335803, -0.018449783, 0
448, 1814672258, 0.861192, 0.4000444, 0.25532252, 0.18199794, -0.04731188, 0.04887133, 0.027071953, 0
449, 1814688925, 0.86116916, 0.40011415, 0.25530693, 0.18197535, -0.046264276, 0.0032916754, 0.034500122, 0
450, 1814705592, 0.86116797, 0.40016487, 0.25527677, 0.18191116, -0.02547556, -0.013096518, 0.003914833, 0
451, 1814722259, 0.86115247, 0.4001275, 0.25529456, 0.18204223, 0.0031535444, -0.014478052, -0.012662888, 0
452, 1814738926, 0.86114395, 0.40012276, 0.2552759, 0.18211862, 0.0061919796, -0.008354691, -0.023244858, 0
453, 1814755593, 0.86113113, 0.40013155, 0.25530976, 0.18211305, -0.05611941, 0.009189959, -0.007645607, 0
454, 1814772260, 0.86114055, 0.4001047, 0.25535974, 0.18205741, -0.058504514, 0.035650987, 0.04846096, 0
455, 1814788927, 0.8611797, 0.40009823, 0.25530532, 0.18196233, -0.039804976, 0.043709524, 0.034510612, 0
456, 1814805594, 0.86120415, 0.4001207, 0.2551817, 0.18197078, -0.016526995, 0.04783915, 0.022093773, 0
457, 1814822261, 0.86120176, 0.40020972, 0.25504178, 0.18198195, -0.011988564, 0.03192391, -0.01109314, 0
458, 1814838928, 0.86118484, 0.40032056, 0.25492984, 0.18197584, 0.019676069, 0.014012475, -0.029945374, 0
459, 1814855595, 0.8611695, 0.40037987, 0.25487745, 0.18199056, -0.018139642, -0.008769084, -0.022084236, 0
460, 1814872262, 0.86114776, 0.40039667, 0.25489533, 0.18203135, -0.042616546, -0.008310435, -0.007893562, 0
461, 1814888929, 0.8611389, 0.40038997, 0.25493217, 0.18203649, -0.045158558, -0.012079758, -0.02137661, 0
462, 1814905596, 0.8611331, 0.40034923, 0.2549812, 0.18208484, -0.029180063, 0.013713861, -0.0012350082, 0
463, 1814922263, 0.86117125, 0.40032703, 0.254915, 0.18204623, -0.031935308, 0.028849488, 0.010378838, 0
464, 1814938930, 0.861212, 0.4003455, 0.25482076, 0.18194464, -0.031047514, 0.043580554, 7.944107E-4, 0
465, 1814955597, 0.86120147, 0.40035313, 0.25480774, 0.18199626, -0.020505078, 0.053439267, -0.0042762756, 0
466, 1814972264, 0.86118394, 0.40039325, 0.2547874, 0.18201962, -0.027868936, 0.022328945, 0.020842552, 0
467, 1814988931, 0.8612007, 0.40045434, 0.25470462, 0.18192147, -0.032532983, 0.020127565, 0.012411118, 0
468, 1815005598, 0.86122864, 0.40042263, 0.25465235, 0.1819321, -0.03107143, 0.03564227, -0.0022773743, 0
469, 1815022265, 0.86125773, 0.40046072, 0.254544, 0.18186222, -0.05224079, 0.014501073, 0.0037374496, 0
470, 1815038932, 0.86123633, 0.40051663, 0.25452098, 0.1818726, -0.037675343, 0.0132301785, -0.024686813, 0
471, 1815055599, 0.86120653, 0.40058458, 0.25452045, 0.18186477, -0.037868906, -0.009636761, -0.007665634, 0
472, 1815072266, 0.8612473, 0.40052602, 0.25448087, 0.18185577, -0.020190597, 0.029203532, 0.0070648193, 0
473, 1815088933, 0.86131626, 0.40046188, 0.25439477, 0.18179084, -0.008156211, 0.0019201998, -0.0024490356, 0
474, 1815105600, 0.861329, 0.40046448, 0.25437292, 0.18175513, -0.01910924, 0.0039101355, -0.019459724, 0
475, 1815122267, 0.86129, 0.4005082, 0.25446868, 0.18170998, -0.026144087, 0.024729026, 0.007798195, 0
476, 1815138934, 0.8612408, 0.40053833, 0.25457215, 0.18173188, -0.0141501585, -0.0072804876, 0.04430008, 0
477, 1815155601, 0.8612636, 0.40053338, 0.2545297, 0.18169403, -0.03024622, -7.286522E-5, 0.05701542, 0
478, 1815172268, 0.8613184, 0.40048924, 0.25441352, 0.18169446, -0.04678953, -0.0060216626, 0.011730194, 0
479, 1815188935, 0.8613511, 0.40051132, 0.25433657, 0.18159886, -0.039147176, 0.0110453395, -0.012626648, 0
480, 1815205602, 0.86135167, 0.40055177, 0.25434676, 0.18149209, -0.042076986, 0.00549596, -0.02479744, 0
481, 1815222269, 0.8613114, 0.40054578, 0.25444433, 0.18155973, -0.0037831804, 0.02659223, -0.0020112991, 0
482, 1815238936, 0.8613436, 0.4005356, 0.25442082, 0.18146193, -0.023649013, -0.0011819365, -0.01608944, 0
483, 1815255603, 0.86135, 0.40050068, 0.25445256, 0.18146408, -0.01945211, 0.0021016924, 0.0019569397, 0
484, 1815272270, 0.8613731, 0.40051746, 0.25444478, 0.1813289, -0.027463038, 0.029247342, 0.012116432, 0
485, 1815288937, 0.8614011, 0.40049353, 0.25443807, 0.18125854, -0.04814849, 0.053172614, 0.029595375, 0
486, 1815305604, 0.8614224, 0.40045896, 0.2544101, 0.18127286, -0.05726402, 0.061248586, 0.027891159, 0
487, 1815322271, 0.8614178, 0.40051773, 0.25433367, 0.18127176, -0.053043425, 0.02301267, 0.0068473816, 0
488, 1815338938, 0.86140203, 0.4006578, 0.25423232, 0.18117937, -0.058792625, -0.0018569457, -0.009933472, 0
489, 1815355605, 0.8613478, 0.40069202, 0.25428435, 0.1812888, -0.017176747, -0.02134124, -0.02649784, 0
490, 1815372272, 0.8613182, 0.40068445, 0.25436768, 0.1813291, 0.0074027493, -0.020172268, -0.035202026, 0
491, 1815388939, 0.8613017, 0.40065187, 0.2544544, 0.18135746, 0.029661957, -0.036537215, -0.020346642, 0
492, 1815405606, 0.86129975, 0.40062067, 0.2545492, 0.18130289, 0.008343068, -0.002271562, 0.011990547, 0
493, 1815422273, 0.86132544, 0.40054125, 0.25461817, 0.18125963, -0.024628446, 0.015309744, 0.025715828, 0
494, 1815438940, 0.86133206, 0.40043658, 0.2546851, 0.18136553, -0.05213641, 0.043770317, 0.044136047, 0
495, 1815455607, 0.86137646, 0.4004164, 0.25459814, 0.1813215, -0.06468577, 0.042332906, 0.014714241, 0
496, 1815472274, 0.8613821, 0.40045497, 0.2545215, 0.18131644, -0.053373553, 0.023837881, 8.5258484E-4, 0
497, 1815488941, 0.8613318, 0.40054658, 0.25452963, 0.18134199, -0.025040157, 0.0020406733, -0.007586479, 0
498, 1815505608, 0.86126286, 0.4006155, 0.25462645, 0.18138143, -0.0052909986, -0.009673641, -0.007984161, 0
499, 1815522275, 0.86122113, 0.40055388, 0.25477734, 0.18150353, -0.0020156398, -0.009957726, 0.011621475, 0
500, 1815538942, 0.86123914, 0.4004821, 0.25481424, 0.18152474, -0.019036599, -0.0055006538, 0.023794174, 0
501, 1815555609, 0.8612461, 0.40048012, 0.25480264, 0.1815114, -0.044304293, 0.0076470487, 0.0016908646, 0
502, 1815572276, 0.8612419, 0.4005021, 0.2547889, 0.18150221, -0.046389442, -0.0064917104, 0.012547493, 0
503, 1815588943, 0.86126506, 0.40053695, 0.25471437, 0.18142036, -0.021239318, -0.033204637, 0.0031576157, 0
504, 1815605610, 0.86131996, 0.40057555, 0.25459534, 0.18124187, 3.826542E-4, -0.022974227, -0.01210022, 0
505, 1815622277, 0.8613211, 0.4005286, 0.25461614, 0.18131043, 0.021463726, -0.02407324, -0.011508942, 0
506, 1815638944, 0.8613177, 0.40046692, 0.25468013, 0.18137312, -0.007405208, 0.008150847, -0.007457733, 0
507, 1815655611, 0.8613398, 0.40041485, 0.25470585, 0.18134701, -0.024293847, 0.017507099, 0.0015449524, 0
508, 1815672278, 0.8613447, 0.4004051, 0.2547279, 0.18131416, -0.04986306, 0.015524539, 0.013463974, 0
509, 1815688945, 0.8613365, 0.4004316, 0.2547373, 0.18128094, -0.050402172, 0.025761656, 0.0013008118, 0
510, 1815705612, 0.8613454, 0.40046635, 0.2546993, 0.18121582, -0.03764338, 0.017458374, 0.014327049, 0
511, 1815722279, 0.8613554, 0.4005032, 0.25463834, 0.18117256, -0.04213264, 0.011186153, 0.019471169, 0
512, 1815738946, 0.86133564, 0.4005496, 0.25462955, 0.1811765, -0.025108105, 0.011547573, -0.0060682297, 0
513, 1815755613, 0.86130714, 0.40055937, 0.25467587, 0.18122499, -0.011799472, 0.006471371, 0.007040024, 0
514, 1815772280, 0.8613006, 0.40056667, 0.2547011, 0.18120481, -0.01725073, -0.004513174, 0.011675835, 0
515, 1815788947, 0.8612867, 0.40056548, 0.2547297, 0.1812332, -0.0043701255, 0.003892925, 0.010648727, 0
516, 1815805614, 0.86126536, 0.40059498, 0.25475395, 0.18123506, -0.025200639, 0.0072965804, 0.007961273, 0
517, 1815822281, 0.8612533, 0.40059164, 0.25476715, 0.1812812, -0.030698834, -0.0027753604, 0.0073280334, 0
518, 1815838948, 0.8612649, 0.40062273, 0.25470513, 0.18124467, -0.034989163, -0.054625895, -0.0054035187, 0
519, 1815855615, 0.8612767, 0.40060845, 0.25471252, 0.18120958, -0.025911633, -0.019297661, -0.029730797, 0
520, 1815872282, 0.8612858, 0.40065593, 0.25473806, 0.18102528, -0.0035353045, -0.0053218435, -0.0019397736, 0
521, 1815888949, 0.8612565, 0.40063053, 0.25486472, 0.18104349, 0.0039602024, 0.023324694, 0.020587921, 0
522, 1815905616, 0.8612865, 0.40060067, 0.25487062, 0.18095773, -0.013899824, 0.054544315, 0.035107613, 0
523, 1815922283, 0.8613198, 0.4005638, 0.2548348, 0.1809313, -0.05567976, 0.044872686, 0.029151917, 0
524, 1815938950, 0.86132705, 0.40057203, 0.2547909, 0.1809402, -0.07262427, 0.010329428, -0.007692337, 0
525, 1815955617, 0.86128545, 0.40066123, 0.25476998, 0.18097048, -0.048720237, -0.012465094, 0.009449005, 0
526, 1815972284, 0.8612468, 0.40072125, 0.25477448, 0.18101525, -0.023965953, -0.010832109, -0.023173332, 0
527, 1815988951, 0.8612768, 0.40069753, 0.25473562, 0.18097988, -0.01557483, 0.0028665536, 0.021844864, 0
528, 1816005618, 0.86132795, 0.40061438, 0.25469816, 0.18097296, -0.010064118, 0.014691283, 0.019702911, 0
529, 1816022285, 0.8613789, 0.40051457, 0.25466564, 0.18099713, -0.036886342, 0.033872493, 0.0073633194, 0
530, 1816038952, 0.861402, 0.4004624, 0.25464216, 0.18103568, -0.04047216, 0.06336212, 0.009484291, 0
531, 1816055619, 0.861394, 0.40045565, 0.254626, 0.18111113, -0.0343792, 0.030434418, 0.019828796, 0
532, 1816072286, 0.86138046, 0.40051696, 0.25456658, 0.18112376, -0.028081944, 0.014397363, 0.015896797, 0
533, 1816088953, 0.8613766, 0.40051886, 0.25451517, 0.18121003, -0.033533424, 0.004191315, 0.008328438, 0
534, 1816105620, 0.861403, 0.4004665, 0.254458, 0.18128064, -0.016613048, -0.017097624, -0.014471054, 0
535, 1816122287, 0.86141825, 0.40044582, 0.2544321, 0.1812903, -0.007343518, -0.015406078, -0.011623383, 0
536, 1816138954, 0.86140186, 0.40042195, 0.25447777, 0.18135719, -0.003485461, -0.012057183, -0.008180618, 0
537, 1816155621, 0.86141795, 0.4003686, 0.2544849, 0.18138859, -0.02132917, 0.0100312615, 0.033390045, 0
538, 1816172288, 0.86147213, 0.40035087, 0.25439188, 0.18130027, -0.021671146, 9.074626E-5, 0.04221344, 0
539, 1816188955, 0.8615099, 0.40031064, 0.25431228, 0.1813212, -0.024099838, 3.1515327E-5, 0.018893242, 0
540, 1816205622, 0.86152685, 0.4003258, 0.25421914, 0.18133773, -0.041420527, 0.0054128133, 0.005870819, 0
541, 1816222289, 0.8615335, 0.40035805, 0.25413692, 0.18135022, -0.0061213495, 0.017961724, -0.015646935, 0
542, 1816238956, 0.861527, 0.40039134, 0.2540951, 0.18136637, -0.010072835, -0.025596034, -0.006811142, 0
543, 1816255623, 0.86149997, 0.4004011, 0.2541302, 0.18142425, 0.014645686, -0.03899541, -0.018754005, 0
544, 1816272290, 0.8614793, 0.40036637, 0.25421003, 0.18148711, 0.014938489, -0.025826698, -0.01621914, 0
545, 1816288957, 0.8615077, 0.40034452, 0.25421, 0.1814001, -4.454613E-4, -0.016598519, -0.001253128, 0
546, 1816305624, 0.8615537, 0.4003062, 0.25417432, 0.18131667, -0.011881948, 0.0024356206, 0.0041484833, 0
547, 1816322291, 0.8615886, 0.40027457, 0.2541391, 0.18126978, -0.04113689, 0.010854906, 0.024803162, 0
548, 1816338958, 0.8616086, 0.40028197, 0.25409675, 0.1812178, -0.026056247, 0.021912763, 0.008199692, 0
549, 1816355625, 0.86161226, 0.40032044, 0.25405252, 0.18117759, -0.024702204, 0.03079338, 0.0033054352, 0
550, 1816372292, 0.8615898, 0.40036726, 0.25406975, 0.1811569, -0.0039306986, 0.02746192, -0.0036420822, 0
551, 1816388959, 0.8615535, 0.40038618, 0.2541551, 0.18116772, -0.0013672288, 0.017145455, -0.013968468, 0
552, 1816405626, 0.86150664, 0.40039378, 0.254294, 0.18117878, -0.02922432, -0.008636988, 0.0029592514, 0
553, 1816422293, 0.86147666, 0.40039638, 0.25439394, 0.1811753, -0.0398318, -0.012548688, 0.019011497, 0
554, 1816438960, 0.86146647, 0.4003393, 0.25448048, 0.18122852, -0.042557985, 0.008484328, 0.011152267, 0
555, 1816455627, 0.8614862, 0.40031314, 0.25448218, 0.18119, -0.042101122, 0.015460839, 0.0075416565, 0
556, 1816472294, 0.86147344, 0.40031457, 0.25449786, 0.18122526, -0.026619723, 0.024675384, 0.025710106, 0
557, 1816488961, 0.86142296, 0.40039197, 0.2545372, 0.18123895, -0.010756337, 0.025736623, -0.0124874115, 0
558, 1816505628, 0.8613906, 0.4004704, 0.2545776, 0.18116301, -0.0012943635, -0.012727051, 0.0027627945, 0
559, 1816522295, 0.8613755, 0.400475, 0.25464466, 0.1811304, -0.008973151, -0.022699976, -0.013551712, 0
560, 1816538962, 0.8613938, 0.40042982, 0.25468403, 0.18108779, -0.038998317, 8.149282E-4, 9.088516E-4, 0
561, 1816555629, 0.8614066, 0.40041324, 0.2547103, 0.18102662, -0.04645538, 0.015621767, 0.005722046, 0
562, 1816572296, 0.8613955, 0.40046465, 0.25473225, 0.18093465, -0.03094425, -0.0013737106, 0.008451462, 0
563, 1816588963, 0.8613641, 0.4004815, 0.25480554, 0.18094334, -0.016284706, 0.0011285169, 0.012966156, 0
564, 1816605630, 0.86134493, 0.40048906, 0.25483707, 0.1809737, -0.020554699, -0.008609719, 0.04424858, 0
565, 1816622297, 0.8613494, 0.4004948, 0.25483134, 0.18094762, -0.007709632, -0.0061115148, -0.0069065094, 0
566, 1816638964, 0.8613497, 0.40049127, 0.2548638, 0.18090856, -0.009549591, 0.003272006, 1.66893E-4, 0
567, 1816655631, 0.8613262, 0.4005098, 0.25495327, 0.18085377, -0.005481208, 0.03205757, 0.021579742, 0
568, 1816672298, 0.8613064, 0.4005121, 0.25505218, 0.18080348, -0.0019809953, 0.020285366, 0.011991501, 0
569, 1816688965, 0.8612804, 0.40052423, 0.25514594, 0.18076846, -0.025532778, 0.012648598, 0.01654625, 0
570, 1816705632, 0.86127174, 0.40051278, 0.255217, 0.18073407, -0.02451937, 0.0068086516, 0.010951996, 0
571, 1816722299, 0.8612721, 0.40051842, 0.25523677, 0.18069169, -0.042273004, 0.03398224, 0.020874977, 0
572, 1816738966, 0.86126983, 0.40052214, 0.25522235, 0.18071486, -0.046606697, 0.027479352, 0.003107071, 0
573, 1816755633, 0.86127394, 0.400549, 0.25517136, 0.18070777, -0.016411215, 0.011547796, -0.011963844, 0
574, 1816772300, 0.8612567, 0.40058753, 0.25516447, 0.18071412, -0.018217647, 0.005987018, -0.0036115646, 0
575, 1816788967, 0.8612489, 0.40055108, 0.25519928, 0.18078321, -0.035506822, 0.0154033955, 0.006816864, 0
576, 1816805634, 0.8612735, 0.40049148, 0.25518814, 0.18081385, -0.028145645, 0.009521205, 0.006114006, 0
577, 1816822301, 0.86128503, 0.40045556, 0.25516844, 0.18086636, -0.033729445, 0.024097603, -0.0020580292, 0
578, 1816838968, 0.8612801, 0.4004322, 0.25516033, 0.18095271, -0.04138454, 0.024143869, 0.0032281876, 0
579, 1816855635, 0.86128926, 0.4004176, 0.2551152, 0.18100525, -0.03667691, 0.012041537, 0.0069847107, 0
580, 1816872302, 0.8612814, 0.40044323, 0.2550485, 0.18108, -0.026281994, -0.033958994, 0.007160187, 0
581, 1816888969, 0.8612982, 0.40041625, 0.25499216, 0.18113855, -0.010790982, -0.024021162, -0.041934013, 0
582, 1816905636, 0.86132395, 0.4003262, 0.25500163, 0.18120177, -0.0018392882, -0.019572582, -0.020892143, 0
583, 1816922303, 0.8613779, 0.4002273, 0.25496897, 0.18121041, 0.011618427, -0.004070171, 0.020061493, 0
584, 1816938970, 0.861448, 0.40012947, 0.2549036, 0.18118502, -1.5422394E-5, 0.018731056, 0.03973198, 0
585, 1816955637, 0.8614872, 0.40008923, 0.2548332, 0.18118647, -0.033912726, 0.019178305, 0.022809982, 0
586, 1816972304, 0.86146045, 0.40004927, 0.25485006, 0.1813786, -0.034133557, 0.0040882756, 0.006931305, 0
587, 1816988971, 0.8614568, 0.40006915, 0.2548072, 0.18141195, 0.007932251, -0.014372777, 0.0013418198, 0
588, 1817005638, 0.86141306, 0.40005985, 0.25483513, 0.18160097, -0.0019239995, -0.039149188, -0.0059452057, 0
589, 1817022305, 0.8614253, 0.40005162, 0.25480467, 0.18160383, -0.010504886, -0.008210301, 0.005566597, 0
590, 1817038972, 0.8614376, 0.39998794, 0.25481993, 0.18166387, -0.016839914, -0.004563017, -0.013849258, 0
591, 1817055639, 0.8614631, 0.39996618, 0.25480968, 0.18160568, -0.012085793, -0.007459745, -0.0063505173, 0
592, 1817072306, 0.8614514, 0.39992532, 0.2548613, 0.18167861, -0.009140115, -0.004543795, -9.6035004E-4, 0
593, 1817088973, 0.86146164, 0.39991623, 0.2548608, 0.1816506, -0.01572637, 0.012377254, 0.01301384, 0
594, 1817105640, 0.86146474, 0.39985555, 0.25486326, 0.18176642, -0.028258966, 0.019065209, 0.004667282, 0
595, 1817122307, 0.8614849, 0.39983013, 0.25481638, 0.18179192, -0.029591328, -0.004413934, 0.019433022, 0
596, 1817138974, 0.8614989, 0.39984497, 0.25477582, 0.18174984, -0.019961942, 0.032535218, 0.008218765, 0
597, 1817155641, 0.8615222, 0.3999052, 0.25470847, 0.18160108, -0.009264388, 0.026974661, -0.0063695908, 0
598, 1817172308, 0.8615085, 0.3998977, 0.25475493, 0.18161748, -0.015162225, 0.023312625, -0.021074295, 0
599, 1817188975, 0.86146295, 0.3999116, 0.25486842, 0.18164359, -0.012981409, -7.898948E-4, -0.01838398, 0
600, 1817205642, 0.8614152, 0.3999214, 0.25498992, 0.18167827, -0.018585773, 0.015378138, -0.0039863586, 0
601, 1817222309, 0.8614015, 0.39992505, 0.2550393, 0.18166594, -0.025108775, 0.007333013, 0.03267479, 0
602, 1817238976, 0.8614305, 0.39994982, 0.2549781, 0.18155997, -0.022748254, 0.0054769614, 0.02979374, 0
603, 1817255643, 0.8614519, 0.3999583, 0.2549244, 0.18151465, -0.03279829, 0.04234766, 0.0033712387, 0
604, 1817272310, 0.8614444, 0.39999923, 0.25490126, 0.18149269, -0.020749826, -0.0077748983, -0.025528908, 0
605, 1817288977, 0.8614042, 0.40003946, 0.2549754, 0.18149076, -0.026528977, -4.9150496E-4, -0.001411438, 0
606, 1817305644, 0.86139506, 0.40001178, 0.25505155, 0.1814881, -0.021284692, 0.02983898, 0.028806686, 0
607, 1817322311, 0.86145926, 0.39994526, 0.25498295, 0.18142638, -0.040150527, 0.028700404, 0.01250267, 0
608, 1817338978, 0.8614782, 0.39991233, 0.25496033, 0.1814408, -0.03976653, 0.02216645, -0.038949966, 0
609, 1817355645, 0.86141765, 0.39995688, 0.2550567, 0.18149471, -0.027858878, 0.01583701, -0.009388924, 0
610, 1817372312, 0.8613639, 0.40001404, 0.25513747, 0.18151096, -0.023061173, 0.022442935, 0.026366234, 0
611, 1817388979, 0.8613598, 0.40002993, 0.25512388, 0.18151373, -0.03654951, -0.021974452, 0.0153541565, 0
612, 1817405646, 0.8613986, 0.39998722, 0.2550614, 0.1815114, -0.03459869, -0.035354834, -0.031887054, 0
613, 1817422313, 0.86141956, 0.39996845, 0.25506872, 0.18144247, -0.009564119, 0.008432473, -0.010250092, 0
614, 1817438980, 0.8613768, 0.3999895, 0.25518847, 0.18143101, -0.0140801985, 0.021591352, 0.020228386, 0
615, 1817455647, 0.8613408, 0.39996815, 0.25532448, 0.18145813, 0.008667162, 0.0035614555, 0.0078754425, 0
616, 1817472314, 0.8613332, 0.39991862, 0.2554305, 0.18145443, -0.012221465, 0.01013296, 0.0047864914, 0
617, 1817488981, 0.861355, 0.3998695, 0.25547004, 0.18140313, -0.04573455, 0.035451837, 0.01956749, 0
618, 1817505648, 0.86139077, 0.39992166, 0.2553779, 0.18124783, -0.055660315, 0.01980839, 0.031726837, 0
619, 1817522315, 0.8613988, 0.3999662, 0.25528637, 0.18124022, -0.04964178, -0.01151874, 9.1362E-4, 0
620, 1817538982, 0.8613863, 0.39997438, 0.25525832, 0.18132125, -0.02408218, -3.4957426E-4, -0.010438919, 0
621, 1817555649, 0.86139977, 0.39997077, 0.25523064, 0.18130441, -0.012718557, -0.0030987835, -0.0023994446, 0
622, 1817572316, 0.8614124, 0.39994612, 0.25523084, 0.18129839, -0.0056019053, 0.020124435, -0.0025367737, 0
623, 1817588983, 0.8614197, 0.39990777, 0.25523812, 0.18133831, -0.042910688, 0.023620179, 0.004899025, 0
624, 1817605650, 0.8614192, 0.39988276, 0.25523627, 0.18139827, -0.032448493, 0.01735511, 0.014555931, 0
625, 1817622317, 0.86139536, 0.3998896, 0.25526285, 0.18145894, -0.02030928, 0.010340156, -0.01687622, 0
626, 1817638984, 0.86138433, 0.39991638, 0.2552517, 0.18146811, -0.034031413, -0.009523887, 0.006791115, 0
627, 1817655651, 0.8613952, 0.39988777, 0.25520512, 0.18154499, -0.02190874, -8.3303277E-4, 0.0067043304, 0
628, 1817672318, 0.8614724, 0.39981237, 0.25507855, 0.18152252, -0.028341442, 0.008849995, 0.00844574, 0
629, 1817688985, 0.8615195, 0.39977655, 0.2549681, 0.18153329, -0.01566714, -0.0069740512, 0.00788784, 0
630, 1817705652, 0.86155975, 0.39974728, 0.25487313, 0.18154034, -0.024048429, 0.0049689165, -0.011140823, 0
631, 1817722319, 0.8615781, 0.39970875, 0.2548369, 0.18158862, -0.0152458185, 0.014094727, 0.0025348663, 0
632, 1817738986, 0.86159456, 0.3996937, 0.2548069, 0.18158612, -0.016589802, 0.0017896682, -0.008538246, 0
633, 1817755653, 0.86158746, 0.3996712, 0.25482264, 0.18164636, -0.027158612, 0.024403814, 0.0037879944, 0
634, 1817772320, 0.86155695, 0.39967722, 0.25485417, 0.18173368, -0.039108507, 0.015795438, 0.004494667, 0
635, 1817788987, 0.86151534, 0.39966404, 0.25489998, 0.1818956, -0.030974649, 0.0031222524, -0.016394615, 0
636, 1817805654, 0.8615302, 0.39962667, 0.25487822, 0.18193795, -0.02383721, 0.0016005763, -0.013185501, 0
637, 1817822321, 0.8615589, 0.39958954, 0.25483084, 0.18194981, -0.015777556, -0.02506586, -0.016954422, 0
638, 1817838988, 0.86156046, 0.3995889, 0.2548182, 0.18196133, -0.0027299873, -0.027190575, -0.016618729, 0
639, 1817855655, 0.8615665, 0.3995505, 0.25483242, 0.18199745, -0.0024707122, -0.0037793806, 0.0020866394, 0
640, 1817872322, 0.86160773, 0.3994849, 0.25479028, 0.18200542, -0.0024861346, -0.006203602, 0.02566719, 0
641, 1817888989, 0.8616295, 0.39944887, 0.25475898, 0.18202524, -0.023023846, 0.032583047, 0.027402878, 0
642, 1817905656, 0.86164105, 0.39951277, 0.25469458, 0.18192008, -0.021064755, 0.012449448, -0.022480011, 0
643, 1817922323, 0.8615911, 0.399581, 0.25476542, 0.18190776, -0.01831644, 0.002033074, -0.009427071, 0
644, 1817938990, 0.86150885, 0.39956528, 0.25493172, 0.18209927, -0.012974927, -0.014845284, 0.0061597824, 0
645, 1817955657, 0.8615336, 0.39957947, 0.25490755, 0.18198468, -0.030657707, -0.017344158, 0.0074062347, 0
646, 1817972324, 0.86156666, 0.39951462, 0.2548981, 0.18198349, -0.012029914, 0.0077972496, 0.008066177, 0
647, 1817988991, 0.8616129, 0.39946768, 0.2548593, 0.1819218, -0.034724973, 0.031757616, 0.0023965836, 0
648, 1818005658, 0.8616308, 0.3994531, 0.2548362, 0.18190137, -0.029549306, 0.062453095, 0.0076875687, 0
649, 1818022325, 0.86161673, 0.39948753, 0.25481528, 0.18192197, -0.044638444, 0.030858869, 0.010467529, 0
650, 1818038992, 0.8615408, 0.3995665, 0.25486925, 0.18203263, -0.037870247, -0.015341929, -0.0048217773, 0
651, 1818055659, 0.86149406, 0.3996178, 0.25491908, 0.18207118, -0.0022402704, -0.047063336, 0.010460854, 0
652, 1818072326, 0.86149013, 0.39954028, 0.25499418, 0.18215519, 0.011420618, -0.0068821874, -0.019576073, 0
653, 1818088993, 0.8615334, 0.3994247, 0.25502333, 0.18216288, -0.021558272, 0.020270167, 0.003753662, 0
654, 1818105660, 0.86156553, 0.39936313, 0.2550201, 0.18215069, -0.022606324, 0.051593497, -0.010331154, 0
655, 1818122327, 0.86157346, 0.39939255, 0.255014, 0.18205774, -0.0452569, 0.048256893, 0.004430771, 0
656, 1818138994, 0.86154425, 0.39940694, 0.2550646, 0.18209356, -0.045854576, 0.021931315, -0.0017557144, 0
657, 1818155661, 0.8615517, 0.39945948, 0.2550302, 0.18199027, -0.017346393, -0.004457966, 0.028999329, 0
658, 1818172328, 0.8615475, 0.39942643, 0.25504145, 0.1820671, -0.014600984, -0.01919641, 0.009177208, 0
659, 1818188995, 0.8615673, 0.39935794, 0.25506562, 0.18208987, -0.005005349, -0.0018676743, 0.011939049, 0
660, 1818205662, 0.8615457, 0.3993182, 0.25517446, 0.18212745, -0.017696638, 0.022752725, 0.022434235, 0
661, 1818222329, 0.8615077, 0.39930248, 0.25529864, 0.18216668, 5.308433E-4, 0.0107941115, 0.024106026, 0
662, 1818238996, 0.8614879, 0.3993156, 0.2553495, 0.18216039, -0.023864254, -9.376368E-4, 0.015540123, 0
663, 1818255663, 0.8614856, 0.39932746, 0.2553504, 0.18214375, -0.030189894, -0.004150412, 0.003809929, 0
664, 1818272330, 0.8615067, 0.39932054, 0.25530574, 0.18212207, -0.045971476, -0.02101983, 0.011610031, 0
665, 1818288997, 0.8615445, 0.39930704, 0.25522274, 0.18208927, -0.030238621, 0.0063372627, 0.0065488815, 0
666, 1818305664, 0.86158264, 0.39929244, 0.25513476, 0.18206455, -0.011020977, -7.1278284E-4, -0.010918617, 0
667, 1818322331, 0.86161447, 0.3992674, 0.25510594, 0.18200842, -0.012752532, 0.022801675, -0.027194977, 0
668, 1818338998, 0.8616113, 0.3992365, 0.2551582, 0.18201777, -0.012325175, 0.03487428, 0.01444149, 0
669, 1818355665, 0.8616092, 0.39918143, 0.2551922, 0.18210088, -0.026984049, 0.052812535, 0.03606224, 0
670, 1818372332, 0.8616433, 0.3991382, 0.25511494, 0.18214218, -0.038263407, 0.040446904, 0.042663574, 0
671, 1818388999, 0.8616572, 0.39912793, 0.25503883, 0.18220598, -0.037901986, 0.033567175, -0.019580841, 0
672, 1818405666, 0.8616133, 0.39913306, 0.25506774, 0.18236224, -0.02742057, 0.014826955, 0.002820015, 0
673, 1818422333, 0.86156136, 0.39919215, 0.25509918, 0.18243405, -0.042052176, -0.008608601, 2.3078918E-4, 0
674, 1818439000, 0.8615185, 0.39916587, 0.255167, 0.18259926, 0.0022219422, -0.03424397, -0.0065431595, 0
675, 1818455667, 0.8615319, 0.39908475, 0.25519776, 0.18267033, 0.014648816, -0.04694599, -0.018048286, 0
676, 1818472334, 0.8615716, 0.39897737, 0.2552056, 0.18270695, 0.004316035, -0.033022027, -0.017477036, 0
677, 1818489001, 0.86162853, 0.3989012, 0.25516167, 0.18266533, 0.0062006963, -0.005494619, 0.021621704, 0
678, 1818505668, 0.8616752, 0.39880207, 0.25514382, 0.1826869, -0.010719011, 0.038913604, 0.017932892, 0
679, 1818522335, 0.86173606, 0.39872047, 0.255063, 0.18269113, -0.015379926, 0.048943527, 0.011660576, 0
680, 1818539002, 0.8617601, 0.39874294, 0.25496435, 0.18266627, -0.04746499, 0.03423414, 5.1021576E-4, 0
681, 1818555669, 0.86173886, 0.3988275, 0.2549032, 0.18266705, -0.044135984, 0.010458395, -0.00568676, 0
682, 1818572336, 0.861713, 0.3988947, 0.25488958, 0.1826614, -0.037416067, -0.036271907, -0.0061826706, 0
683, 1818589003, 0.8616994, 0.3988617, 0.25494403, 0.18272159, -0.011164472, -0.056186017, -0.009174347, 0
684, 1818605670, 0.8617239, 0.3987516, 0.25500792, 0.18275751, 0.00739135, -0.029909609, 0.010081291, 0
685, 1818622337, 0.8617649, 0.39863968, 0.25503248, 0.18277416, 0.017248048, 0.02940313, 0.007546425, 0
686, 1818639004, 0.8617863, 0.3985654, 0.255032, 0.18283617, -0.0125752855, 0.055118743, 0.025149345, 0
687, 1818655671, 0.8618068, 0.39854088, 0.2549666, 0.1828836, -0.019977588, 0.017894447, 0.020285606, 0
688, 1818672338, 0.86181694, 0.3986283, 0.25484553, 0.18281399, -0.033068072, 0.003485908, -0.010057449, 0
689, 1818689005, 0.86178416, 0.39874166, 0.25480247, 0.18278144, -0.027109662, -0.020551123, -0.0064926147, 0
690, 1818705672, 0.86176354, 0.39877835, 0.25480598, 0.18279368, -0.004282955, -0.027299648, -0.002984047, 0
691, 1818722339, 0.8617799, 0.39875326, 0.25480676, 0.1827701, 0.007527916, 0.0027143413, 0.01580906, 0
692, 1818739006, 0.86181664, 0.39871368, 0.25481158, 0.18267637, -0.027622402, 0.0020245803, -0.019337654, 0
693, 1818755673, 0.86181587, 0.39867225, 0.25488412, 0.1826694, -0.037382767, 0.035036996, -0.0017137527, 0
694, 1818772340, 0.8617739, 0.39863205, 0.2550017, 0.18279126, -0.03552627, 0.035764083, 6.7424774E-4, 0
695, 1818789007, 0.8617534, 0.3986907, 0.25500184, 0.18275963, -0.034103606, 0.011333895, 0.01286602, 0
696, 1818805674, 0.86173064, 0.3987552, 0.2549842, 0.18275101, -0.010097198, 0.018415233, 0.021938324, 0
697, 1818822341, 0.86170566, 0.39880282, 0.25499007, 0.18275625, -0.009647713, -0.007977177, 0.006621361, 0
698, 1818839008, 0.8617238, 0.39880368, 0.25496015, 0.18271045, -0.0022724562, -0.016945858, 0.019218445, 0
699, 1818855675, 0.8617257, 0.3987922, 0.2549858, 0.18269059, -0.008151517, -0.008104803, 0.012426376, 0
700, 1818872342, 0.8617221, 0.39877963, 0.2550165, 0.18269166, -0.020638963, 0.014315558, -0.011996269, 0
701, 1818889009, 0.861727, 0.39880982, 0.25500593, 0.18261853, -0.03939483, 0.014735315, -0.004242897, 0
702, 1818905676, 0.86171156, 0.3988221, 0.25502306, 0.18264046, -0.017493466, 0.009644584, 0.016002655, 0
703, 1818922343, 0.86171603, 0.39882287, 0.25500447, 0.18264367, -0.02125407, 0.009865862, -5.5885315E-4, 0
704, 1818939010, 0.8616978, 0.39883563, 0.25503123, 0.1826644, -0.021807488, -0.023909181, -0.010030746, 0
705, 1818955677, 0.8616619, 0.398832, 0.2551279, 0.18270704, -0.006711647, 3.160473E-4, -0.015806198, 0
706, 1818972344, 0.86163956, 0.39880383, 0.25523677, 0.1827212, -2.6151017E-4, 0.005040664, 0.029761314, 0
707, 1818989011, 0.8616519, 0.39877015, 0.25527257, 0.18268678, -0.005366099, 0.034578573, 0.03191662, 0
708, 1819005678, 0.8616722, 0.398735, 0.25528038, 0.18265711, -0.03287652, 0.028462363, 0.028792381, 0
709, 1819022345, 0.8616543, 0.3987458, 0.25530908, 0.1826779, -0.0385799, 0.016716534, 0.011515617, 0
710, 1819039012, 0.861645, 0.39879847, 0.25530335, 0.18261433, -0.043240592, 0.033371154, -0.0073080063, 0
711, 1819055679, 0.8616214, 0.3988441, 0.25529405, 0.18263882, -0.050501857, 0.003292793, 0.017881393, 0
712, 1819072346, 0.8616135, 0.39886543, 0.25525996, 0.18267706, -0.041536305, -0.016654396, 0.015522957, 0
713, 1819089013, 0.8616393, 0.3988488, 0.2552023, 0.18267225, -0.015129816, 0.0054264474, -0.016430855, 0
714, 1819105680, 0.8616604, 0.3988204, 0.2551877, 0.18265559, 0.008974493, 0.016877016, -0.0050210953, 0
715, 1819122347, 0.86165434, 0.39877206, 0.25523812, 0.18271951, -0.015532362, 0.037584823, -0.011917114, 0
716, 1819139014, 0.86165583, 0.39870977, 0.25527182, 0.18280101, -0.031213583, -0.0058196066, 0.013643265, 0
717, 1819155681, 0.86168134, 0.3986637, 0.25523552, 0.18283227, -0.034950275, 0.011561431, 0.01496315, 0
718, 1819172348, 0.8617029, 0.39864653, 0.25517136, 0.18285725, -0.028794056, 0.01800151, 0.014679909, 0
719, 1819189015, 0.86169297, 0.39868647, 0.2551115, 0.18290004, -0.019097393, -0.013087354, 0.010128975, 0
720, 1819205682, 0.86168146, 0.39871004, 0.25507727, 0.18295099, 0.014067011, -0.012473811, -0.001458168, 0
721, 1819222349, 0.86169285, 0.39868495, 0.25504944, 0.18299109, 0.01877576, -0.025022052, -0.0053749084, 0
722, 1819239016, 0.8617374, 0.39861384, 0.25501278, 0.18298687, -0.0122605795, -0.010751868, -0.03698826, 0
723, 1819255683, 0.8617874, 0.39851022, 0.2550063, 0.18298616, -0.020420367, 0.009098765, 0.0034427643, 0
724, 1819272350, 0.8618293, 0.3984409, 0.25498843, 0.18296517, -0.03455689, 0.026515342, 0.013348579, 0
725, 1819289017, 0.861858, 0.3983935, 0.2549541, 0.18298067, -0.036231004, 0.035465024, 0.026108742, 0
726, 1819305684, 0.8618612, 0.3984243, 0.25488412, 0.18299563, -0.019079959, 0.042203717, 0.015509605, 0
727, 1819322351, 0.86184627, 0.39849547, 0.25480944, 0.1830158, -0.024299212, 0.010522319, -0.0087509155, 0
728, 1819339018, 0.8618236, 0.39851642, 0.25478444, 0.18311167, -0.019355105, -0.02345545, -0.009129524, 0
729, 1819355685, 0.8617925, 0.39849788, 0.25483215, 0.183232, -0.014178768, -0.04878662, -0.028587341, 0
730, 1819372352, 0.86176974, 0.39846945, 0.254915, 0.18328519, 0.004941648, -0.018573927, 0.0034475327, 0
731, 1819389019, 0.86179125, 0.39843455, 0.25494674, 0.18321572, 0.0028050875, -0.0043880064, 0.01084137, 0
732, 1819405686, 0.8618251, 0.39835745, 0.25495416, 0.18321371, -0.008080217, 0.018198201, -0.003443718, 0
733, 1819422353, 0.86185056, 0.39831895, 0.2549501, 0.1831835, -0.013145467, 0.013844392, 0.0023374557, 0
734, 1819439020, 0.86185485, 0.39832357, 0.2549485, 0.18315554, -0.02859513, 0.052794207, 0.031113625, 0
735, 1819455687, 0.8618637, 0.39838845, 0.25487497, 0.18307546, -0.048695426, 0.033590198, 0.03262806, 0
736, 1819472354, 0.86186934, 0.39842987, 0.2548044, 0.18305732, -0.03177192, 0.013590259, 0.020075798, 0
737, 1819489021, 0.86188525, 0.39846236, 0.2547468, 0.18299162, -0.016331198, 0.0020552017, -0.0126543045, 0
738, 1819505688, 0.8618658, 0.3984648, 0.2548078, 0.18299246, -0.0012308859, -0.005689746, -0.01925087, 0
739, 1819522355, 0.86181873, 0.39846253, 0.25495654, 0.18301205, 0.0059566204, 4.9374014E-4, -0.008975983, 0
740, 1819539022, 0.86177164, 0.39845493, 0.25512257, 0.18301928, -0.01263027, -0.0019722783, 0.0075712204, 0
741, 1819555689, 0.861761, 0.39842728, 0.25522938, 0.18298016, -0.0122985765, 0.022913653, 0.031492233, 0
742, 1819572356, 0.861753, 0.3984092, 0.2552775, 0.18298994, -0.015573265, 0.018211836, 0.039450645, 0
743, 1819589023, 0.8617495, 0.39846838, 0.25522196, 0.18295515, -0.021036146, 0.024575474, 0.0492754, 0
744, 1819605690, 0.8617503, 0.39854252, 0.25514528, 0.18289678, -0.0334809, 0.009421518, 0.012247086, 0
745, 1819622357, 0.86175424, 0.39857924, 0.25510138, 0.18285972, -0.03568161, 0.013320701, -0.006245613, 0
746, 1819639024, 0.8617458, 0.39859793, 0.2551099, 0.18284702, -0.028708227, -0.009682581, -0.011510849, 0
747, 1819655691, 0.86171347, 0.39863768, 0.2551719, 0.18282643, -0.024731262, -0.016846841, -0.007590294, 0
748, 1819672358, 0.86170083, 0.39861605, 0.2552532, 0.18281919, -0.020801233, -0.007539539, -0.0077819824, 0
749, 1819689025, 0.8617278, 0.3985413, 0.25530168, 0.18278772, -0.020180538, 0.025414318, 0.01896, 0
750, 1819705692, 0.8617371, 0.39856404, 0.25525978, 0.18275274, -0.028257178, 0.012413239, 0.015302658, 0
751, 1819722359, 0.86171687, 0.39862236, 0.25523967, 0.182749, -0.038673107, 0.0015165354, -3.1661987E-4, 0
752, 1819739026, 0.86169297, 0.3986944, 0.25523967, 0.18270469, -0.0074930484, -5.234673E-4, 0.026209831, 0
753, 1819755693, 0.86168957, 0.39870703, 0.2552375, 0.18269543, 0.003059669, -0.024620399, 0.020507812, 0
754, 1819772360, 0.8617197, 0.39867666, 0.25521362, 0.18265276, -0.007980307, 0.018902937, 0.012653351, 0
755, 1819789027, 0.86171573, 0.39864218, 0.25525656, 0.18268682, -0.0077118673, 0.0051074945, -0.014473915, 0
756, 1819805694, 0.8617347, 0.39857996, 0.25529638, 0.18267776, -0.0368964, 0.042222716, -0.010311127, 0
757, 1819822361, 0.8617335, 0.3985402, 0.25533646, 0.18271415, -0.05047861, 0.035105616, 0.009541512, 0
758, 1819839028, 0.8617244, 0.39856794, 0.25531188, 0.18273102, -0.058614038, 0.011555843, 0.012423515, 0
759, 1819855695, 0.8617162, 0.39861882, 0.25525504, 0.18273768, -0.032894626, 2.8609658E-5, 0.0111169815, 0
760, 1819872362, 0.8617225, 0.3986325, 0.25520122, 0.1827531, -0.03512238, 0.009256119, 0.019724846, 0
761, 1819889029, 0.8617391, 0.3985797, 0.25518736, 0.18280965, -0.014885963, 0.011225044, -6.9618225E-5, 0
762, 1819905696, 0.86175525, 0.39852318, 0.25517404, 0.18287529, 0.0034432171, 0.0051609143, -0.0065317154, 0
763, 1819922363, 0.8617458, 0.39848217, 0.2552142, 0.18295383, -0.009284505, 0.016894897, -0.021871567, 0
764, 1819939030, 0.86172247, 0.3984753, 0.2552584, 0.18301702, -0.033135124, 0.022356883, 0.02678299, 0
765, 1819955697, 0.86174, 0.39844838, 0.25521612, 0.1830515, -0.033814605, 0.003630521, 0.0030727386, 0
766, 1819972364, 0.8617723, 0.39839616, 0.2551473, 0.1831092, -0.029434422, 0.021875437, 0.00754261, 0
767, 1819989031, 0.8618006, 0.39839196, 0.2550451, 0.18312779, -0.010776677, 0.006207849, -0.014928818, 0
768, 1820005698, 0.86181664, 0.39836493, 0.25499842, 0.18317613, -0.025882578, 0.009527016, -0.00685215, 0
769, 1820022365, 0.86185634, 0.39830387, 0.2549582, 0.1831778, 0.0029130443, 0.012211407, 0.0093717575, 0
770, 1820039032, 0.86190826, 0.39822266, 0.25490138, 0.18318926, -0.018344155, 0.0024687005, 0.018001556, 0
771, 1820055699, 0.8619593, 0.39810413, 0.2548651, 0.18325736, -0.02088058, 0.041194778, 0.012983322, 0
772, 1820072366, 0.86197186, 0.39808315, 0.2548227, 0.18330246, -0.023792954, 0.050293095, -0.0047693253, 0
773, 1820089033, 0.86196995, 0.39814928, 0.2547642, 0.18324915, -0.025371403, 0.02862061, 7.87735E-4, 0
774, 1820105700, 0.8619312, 0.3981562, 0.25480506, 0.18335955, -0.012005105, 0.013698438, 0.006246567, 0
775, 1820122367, 0.86192065, 0.39813292, 0.25481498, 0.18344538, -0.009703144, -0.019355329, 0.017698288, 0
776, 1820139034, 0.8619335, 0.39810938, 0.25478634, 0.18347597, -0.0046917605, -0.038959425, -0.0041675568, 0
777, 1820155701, 0.86192995, 0.39810178, 0.2548152, 0.18346907, 0.017541967, -0.04184252, -0.016537666, 0
778, 1820172368, 0.86192256, 0.39804927, 0.25489694, 0.18350486, 0.012234205, -0.018989436, 0.003602028, 0
779, 1820189035, 0.8619757, 0.3979605, 0.25490502, 0.18343604, -0.0035444684, 0.01644139, 0.010240555, 0
780, 1820205702, 0.86202747, 0.39790553, 0.25486207, 0.18337245, -0.030455653, 0.036505252, 0.02244091, 0
781, 1820222369, 0.86205363, 0.39792657, 0.2547998, 0.1832902, -0.038725853, 0.038465016, 0.009473801, 0
782, 1820239036, 0.8620295, 0.39802176, 0.2547613, 0.18325059, -0.01838014, 0.041851908, 0.011867523, 0
783, 1820255703, 0.8619837, 0.39811173, 0.2547748, 0.18325195, -0.012675419, -0.0011130945, -0.0029659271, 0
784, 1820272370, 0.86196834, 0.39814872, 0.2547859, 0.1832275, -0.011482978, -0.02810519, 0.0082883835, 0
785, 1820289037, 0.8619655, 0.3981277, 0.2548211, 0.18323778, -0.019994799, -0.009781597, -0.0048971176, 0
786, 1820305704, 0.8619734, 0.39810055, 0.2548665, 0.1831964, -0.018391987, 0.017040404, 0.003189087, 0
787, 1820322371, 0.86195993, 0.39809906, 0.2549254, 0.18318123, -0.029988958, 0.020073028, 0.018357277, 0
788, 1820339038, 0.861959, 0.39808878, 0.25495422, 0.1831677, -0.017537497, 0.038266536, 0.017065048, 0
789, 1820355705, 0.861938, 0.39811546, 0.254968, 0.18318936, -0.022008426, 0.020288495, 0.01849842, 0
790, 1820372372, 0.86189866, 0.39820194, 0.25497603, 0.18317543, 9.528357E-4, 0.0030422348, -0.0146865845, 0
791, 1820389039, 0.86185455, 0.3982782, 0.25501457, 0.1831634, -0.0037364662, -0.02171786, 0.007528305, 0
792, 1820405706, 0.8618551, 0.39830327, 0.25501198, 0.18311036, -0.00580709, -0.030862669, 0.002773285, 0
793, 1820422373, 0.86186254, 0.39828584, 0.25504014, 0.18307437, -0.028520253, -0.008969128, -0.0024204254, 0
794, 1820439040, 0.86188656, 0.3982421, 0.2550667, 0.18301895, -0.01320604, 0.024749814, -0.007813454, 0
795, 1820455707, 0.86190814, 0.39821795, 0.25505602, 0.18298484, -0.0276566, 0.022467298, 0.0033082962, 0
796, 1820472374, 0.86189395, 0.39829186, 0.25502452, 0.18293484, -0.02897063, 0.009055851, -0.005900383, 0
797, 1820489041, 0.86185026, 0.3983578, 0.25506333, 0.18294233, -0.032823995, -0.004274909, 0.013378143, 0
798, 1820505708, 0.8618011, 0.39845055, 0.25511613, 0.18289828, -0.0069532646, -0.017723013, 0.0176363, 0
799, 1820522375, 0.8617819, 0.39850083, 0.25515777, 0.18282127, 0.011048692, -0.028687889, 0.017373085, 0
800, 1820539042, 0.8617953, 0.39845365, 0.255217, 0.18277809, 0.011872784, 0.014970004, 0.022885323, 0
801, 1820555709, 0.86180866, 0.39839846, 0.25528383, 0.18274248, -0.01219956, 0.04244757, 0.006778717, 0
802, 1820572376, 0.86182487, 0.3983551, 0.25530007, 0.18273796, -0.04682373, 0.036670875, 0.022533417, 0
803, 1820589043, 0.86182934, 0.39839992, 0.25524512, 0.18269596, -0.062031552, 0.03931034, 1.8596649E-4, 0
804, 1820605710, 0.86182946, 0.3984525, 0.2551693, 0.18268603, -0.05006668, 0.005575754, -0.008052826, 0
805, 1820622377, 0.86183983, 0.39846325, 0.25511488, 0.18269001, -0.03031685, 0.019108122, 0.002272606, 0
806, 1820639044, 0.861839, 0.39843985, 0.2551071, 0.18275593, -0.021235295, 0.009183253, 0.016765594, 0
807, 1820655711, 0.8618323, 0.39842424, 0.25512308, 0.18279971, -0.005302398, 0.016052254, 0.0081272125, 0
808, 1820672378, 0.8618049, 0.39843854, 0.25517905, 0.18281925, -0.008284954, 0.0031698607, 0.0027685165, 0
809, 1820689045, 0.8617694, 0.3984315, 0.25524685, 0.1829067, -0.009901401, 1.517653E-4, 0.015185356, 0
810, 1820705712, 0.8617741, 0.3984099, 0.25523478, 0.18294908, -0.024977572, -0.00994208, 0.0052671432, 0
811, 1820722379, 0.86180705, 0.39837676, 0.25517732, 0.18294598, -0.011998399, -0.019699762, -0.004878998, 0
812, 1820739046, 0.86184424, 0.3983265, 0.25512597, 0.1829525, -0.019465743, 0.030280193, -0.0051641464, 0
813, 1820755713, 0.86187816, 0.3982886, 0.25505644, 0.18297133, -0.016503302, 0.018500168, 0.022449493, 0
814, 1820772380, 0.8619005, 0.39830402, 0.25497907, 0.1829405, -0.012272649, 0.0057004746, 9.10759E-4, 0
815, 1820789047, 0.8618999, 0.39831233, 0.25497285, 0.18293396, -0.015040858, -0.0017764809, 0.01620102, 0
816, 1820805714, 0.8619083, 0.39827952, 0.25498697, 0.18294592, 0.005459751, -0.00457911, 0.017554283, 0
817, 1820822381, 0.86192274, 0.39823726, 0.25499412, 0.18296011, -0.0085328305, 0.012943636, 0.014621735, 0
818, 1820839048, 0.86192524, 0.3982451, 0.25498432, 0.18294501, -0.018889304, 0.017090471, 0.0013685226, 0
819, 1820855715, 0.8619299, 0.39825922, 0.2549629, 0.18292217, -0.035237264, 0.00769041, -0.0055332184, 0
820, 1820872382, 0.86191607, 0.39826876, 0.25498217, 0.1829396, -0.030807909, -8.7393564E-5, -0.004465103, 0
821, 1820889049, 0.86190176, 0.3982857, 0.25500613, 0.18293665, -0.0134224, 0.005058992, 0.011180878, 0
822, 1820905716, 0.86190563, 0.39827916, 0.25498733, 0.1829591, 0.004905886, -0.004172093, 0.018235207, 0
823, 1820922383, 0.86192, 0.3982589, 0.2549504, 0.1829869, -0.002559447, -0.029738622, 5.283356E-4, 0
824, 1820939050, 0.8619413, 0.39827636, 0.25492325, 0.18288688, -0.015523645, 0.00935223, -0.023851395, 0
825, 1820955717, 0.8619192, 0.3982699, 0.25501382, 0.18287854, 5.590059E-4, 0.021284692, 0.010056496, 0
826, 1820972384, 0.8619124, 0.39824072, 0.25509593, 0.1828598, 3.5069181E-4, 0.017484972, -0.00685215, 0
827, 1820989051, 0.8619372, 0.39821157, 0.25508228, 0.1828251, -0.007924875, 0.04669387, 0.020104408, 0
828, 1821005718, 0.8619458, 0.39825022, 0.25502384, 0.1827814, -0.039435063, 0.03314563, 0.017190933, 0
829, 1821022385, 0.8618982, 0.39831677, 0.2550322, 0.18284945, -0.03845898, 0.011464873, 0.016457558, 0
830, 1821039052, 0.8618706, 0.39837602, 0.25503057, 0.18285286, -0.026934428, -0.012172292, 0.0011644363, 0
831, 1821055719, 0.8618591, 0.39839476, 0.25503942, 0.18285383, -0.007696892, -0.022731937, 5.4359436E-5, 0
832, 1821072386, 0.8618493, 0.39840487, 0.25507265, 0.18283144, 0.0015239114, -0.0019088007, -0.006791115, 0
833, 1821089053, 0.86184365, 0.398384, 0.25513425, 0.18281777, -0.008453484, -1.8685684E-4, -0.023202896, 0
834, 1821105720, 0.8618335, 0.39834064, 0.25523186, 0.1828237, -0.007350447, 0.012808857, -0.012302399, 0
835, 1821122387, 0.8618198, 0.39833108, 0.25530678, 0.18280463, -0.033451173, 0.037343875, 0.013285637, 0
836, 1821139054, 0.8618092, 0.3983817, 0.25530756, 0.18274312, -0.038736805, 0.018583091, 0.03426552, 0
837, 1821155721, 0.8618038, 0.39845914, 0.25522622, 0.18271337, -0.035875395, -0.012655304, 0.04499817, 0
838, 1821172388, 0.86183167, 0.3984914, 0.25512147, 0.18265793, -0.026951639, -6.9445476E-4, -0.006245613, 0
839, 1821189055, 0.8618667, 0.39850798, 0.25503734, 0.18257418, -0.009673194, 0.005590953, -0.020588875, 0
840, 1821205722, 0.86189246, 0.39851853, 0.25499234, 0.18249224, -0.006831003, -0.007364081, -0.025921822, 0
841, 1821222389, 0.86187786, 0.39850792, 0.2550664, 0.18248107, -0.017053368, 0.015134957, -0.015260696, 0
842, 1821239056, 0.86183274, 0.39850384, 0.25521308, 0.18249805, -0.009814231, 7.2865223E-4, 0.014960289, 0
843, 1821255723, 0.86182386, 0.39846873, 0.25529116, 0.18250723, -0.012608143, 0.0130035365, 0.034526825, 0
844, 1821272390, 0.8618639, 0.39841226, 0.25527123, 0.18246883, -0.022998143, 0.038107842, 0.040293694, 0
845, 1821289057, 0.86188596, 0.39840367, 0.25521868, 0.18245709, -0.02678557, 0.041081905, 0.03678894, 0
846, 1821305724, 0.86190355, 0.3984146, 0.25515273, 0.18244258, -0.047304727, 0.024845254, 0.008563995, 0
847, 1821322391, 0.86188024, 0.39845783, 0.25513232, 0.18248706, -0.01571095, 0.015109699, 0.005296707, 0
848, 1821339058, 0.86186343, 0.39852706, 0.255088, 0.18247715, -0.0061767804, -0.03846412, -0.010942459, 0
849, 1821355725, 0.8618837, 0.3984846, 0.25506693, 0.18250331, -0.0020024525, -0.02380346, -0.019698143, 0
850, 1821372392, 0.86192113, 0.3983842, 0.255073, 0.1825373, -0.01639691, 3.7863094E-4, 4.5204163E-4, 0
851, 1821389059, 0.8619564, 0.398333, 0.25505972, 0.18250103, -0.029102057, 0.020937353, 0.013591766, 0
852, 1821405726, 0.86195785, 0.39832634, 0.25504264, 0.18253276, -0.036749776, 0.032026276, 0.016749382, 0
853, 1821422393, 0.8619562, 0.39835694, 0.25499642, 0.1825379, -0.028181631, 0.011268629, 0.01365757, 0
854, 1821439060, 0.8619487, 0.39835846, 0.25496334, 0.18261611, -0.027893076, 0.002493734, -0.011620522, 0
855, 1821455727, 0.86195385, 0.39833903, 0.25493684, 0.1826714, -0.0040587718, -0.030701516, -0.013392448, 0
856, 1821472394, 0.8619615, 0.39829722, 0.25494963, 0.18270902, -0.011231749, 6.5109326E-4, -0.004137993, 0
857, 1821489061, 0.8619703, 0.398236, 0.25497544, 0.18276516, -0.001457081, -0.0050484873, -0.005835533, 0
858, 1821505728, 0.86201346, 0.398147, 0.2549707, 0.18276171, 0.0042579216, 0.04001262, -0.008420944, 0
859, 1821522395, 0.86205035, 0.3981034, 0.25494632, 0.18271665, -0.03171157, 0.041786864, 0.01977539, 0
860, 1821539062, 0.8620575, 0.39810655, 0.25491792, 0.18271543, -0.030192576, 0.031044161, 0.027088165, 0
861, 1821555729, 0.8620401, 0.39815268, 0.25487694, 0.18275413, -0.008406993, 0.0010911903, 0.022090912, 0
862, 1821572396, 0.86202323, 0.39818314, 0.25485548, 0.1827975, -0.0044512604, -0.016901156, 8.1539154E-4, 0
863, 1821589063, 0.86203015, 0.39818254, 0.2548363, 0.18279286, 0.012584003, -0.023741324, 0.0053157806, 0
864, 1821605730, 0.8620583, 0.39812, 0.25484103, 0.18278989, -4.568605E-4, 0.01308713, -0.005314827, 0
865, 1821622397, 0.86206985, 0.39808074, 0.25486585, 0.182786, -0.021856438, 0.0063470975, -0.00988102, 0
866, 1821639064, 0.8620811, 0.39811242, 0.2548392, 0.18270178, -0.019395337, 0.0051258225, -0.0076818466, 0
867, 1821655731, 0.8620612, 0.3981445, 0.25485793, 0.18269902, -0.02260856, -0.0032313268, 0.016781807, 0
868, 1821672398, 0.8620632, 0.39817938, 0.2548318, 0.18264976, 0.017927751, -0.012382618, 0.027999878, 0
869, 1821689065, 0.86208445, 0.3981716, 0.2547851, 0.18263234, 0.009891119, -0.010650393, 0.0031061172, 0
870, 1821705732, 0.86212957, 0.39815885, 0.2547335, 0.18251874, 0.01787299, 0.013050921, -0.013991356, 0
871, 1821722399, 0.86214286, 0.39813024, 0.25475916, 0.18248242, 0.020756084, 0.020927966, -0.009272575, 0
872, 1821739066, 0.8621266, 0.3981407, 0.25482845, 0.18243988, -0.014228388, 0.028511982, -0.009919167, 0
873, 1821755733, 0.8621084, 0.3981555, 0.25489038, 0.18240657, -0.03582801, 0.012158657, 0.012717247, 0
874, 1821772400, 0.86211, 0.3981782, 0.25488397, 0.18235834, -0.035328906, -0.0060621183, 0.0153102875, 0
875, 1821789067, 0.86211824, 0.39820448, 0.25485528, 0.18230253, -0.029325347, -0.014385518, 0.011455536, 0
876, 1821805734, 0.8620972, 0.39824477, 0.25487372, 0.18228841, -0.0087784715, -0.0178151, 0.00650692, 0
877, 1821822401, 0.8620538, 0.398294, 0.25495434, 0.1822732, 0.018766148, -0.011885078, 0.0013122559, 0
878, 1821839068, 0.86203086, 0.3982704, 0.25507376, 0.1822666, 0.01755426, -0.018177638, -0.001704216, 0
879, 1821855735, 0.86203134, 0.39820486, 0.25516748, 0.18227607, -0.0073021683, 0.018818673, 0.0012702942, 0
880, 1821872402, 0.8620261, 0.3981771, 0.25522566, 0.18228042, -0.04366929, 0.025758527, 0.026619911, 0
881, 1821889069, 0.86202484, 0.3982147, 0.2552148, 0.18221942, -0.047141787, 0.035478212, 0.0031938553, 0
882, 1821905736, 0.8620312, 0.3982707, 0.25514627, 0.18216221, -0.02934345, 0.04298512, 0.01187706, 0
883, 1821922403, 0.86202604, 0.39834616, 0.25506732, 0.18213236, -0.035246428, 9.7228134E-5, -0.0011463165, 0
884, 1821939070, 0.8619959, 0.39841893, 0.25506672, 0.18211675, 0.031960566, -0.022754736, -0.029808998, 0
885, 1821955737, 0.8619579, 0.39844474, 0.25516888, 0.18209723, 0.023155048, -0.015137415, -5.0258636E-4, 0
886, 1821972404, 0.86194104, 0.3984245, 0.25525624, 0.18209922, 0.01557103, -0.006663368, 0.03196335, 0
887, 1821989071, 0.8619805, 0.39833334, 0.2552715, 0.18208946, -0.0078209415, -0.0056707473, 0.014331818, 0
888, 1822005738, 0.8620229, 0.3982777, 0.25525102, 0.18204027, -0.034905795, 0.040175337, 0.01102066, 0
889, 1822022405, 0.8620171, 0.39830157, 0.25524318, 0.18202648, -0.0414545, 0.03516686, 0.023226738, 0
890, 1822039072, 0.8619857, 0.39837295, 0.25522152, 0.18204948, -0.03087228, 0.031410277, 0.023256302, 0
891, 1822055739, 0.8619514, 0.39844817, 0.2551665, 0.18212447, -0.010394023, -0.013334783, -0.007627487, 0
892, 1822072406, 0.861963, 0.39848217, 0.25507703, 0.18211977, -0.0077851797, -0.014716764, -0.008743286, 0
893, 1822089073, 0.8620116, 0.39846483, 0.25499645, 0.18204029, -0.012248733, -0.011382174, -0.015851974, 0
894, 1822105740, 0.8620311, 0.3984245, 0.25499916, 0.18203253, -0.019888854, 0.0042112074, 0.013237953, 0
895, 1822122407, 0.86202854, 0.39837947, 0.25502136, 0.18211211, -0.017959937, 0.01392508, 0.009451866, 0
896, 1822139074, 0.8620547, 0.39834148, 0.25495636, 0.18216227, -0.04263197, 0.021893987, 0.022824287, 0
897, 1822155741, 0.8620622, 0.3983613, 0.2548483, 0.1822347, -0.048224263, -0.009574401, 0.03848076, 0
898, 1822172408, 0.86209697, 0.3983514, 0.2546832, 0.18232295, -0.044669513, 0.008494163, 0.031802177, 0
899, 1822189075, 0.86211044, 0.39836654, 0.25454214, 0.18242297, -0.013458163, -0.011907206, -0.0071897507, 0
900, 1822205742, 0.862069, 0.39843756, 0.25449336, 0.18253192, 0.023018258, -0.027982034, -0.015431404, 0
901, 1822222409, 0.8620383, 0.39842775, 0.25453147, 0.18264465, 0.03827771, -0.03056562, -0.012578964, 0
902, 1822239076, 0.86205816, 0.3983374, 0.25455278, 0.18271841, 0.013631608, -0.0065534, -0.004927635, 0
903, 1822255743, 0.8621319, 0.39818025, 0.25452453, 0.18275274, -0.0012369207, -0.019112146, 0.014908791, 0
904, 1822272410, 0.862212, 0.3980676, 0.2544308, 0.1827505, -0.03777302, 0.0015563207, -0.008759499, 0
905, 1822289077, 0.86224043, 0.39802828, 0.25438705, 0.18276277, -0.01331355, 0.021151925, -0.0070858, 0
906, 1822305744, 0.8622943, 0.39802334, 0.25427523, 0.18267478, -0.018019168, 0.022956569, 0.014890671, 0
907, 1822322411, 0.8623125, 0.39794746, 0.25423923, 0.18280461, -0.038944673, 0.0156170735, 0.014605522, 0
908, 1822339078, 0.8623293, 0.3979387, 0.2542021, 0.18279627, 0.024508642, -0.032784432, -0.03342247, 0
909, 1822355745, 0.86231786, 0.39790833, 0.25427356, 0.1828169, 0.016063206, 0.024741543, -0.016619682, 0
910, 1822372412, 0.8622875, 0.39782923, 0.25444365, 0.18289526, 0.016705805, 0.026838541, 0.026871681, 0
911, 1822389079, 0.86229193, 0.39779913, 0.25449675, 0.18286645, -0.01859382, 0.0040149633, 0.042912483, 0
912, 1822405746, 0.862305, 0.39779854, 0.25450975, 0.18278775, -0.021488313, 0.028148998, 0.0319252, 0
913, 1822422413, 0.86227256, 0.39782977, 0.25459325, 0.18275684, -0.0014081317, 0.05310936, -0.021467209, 0
914, 1822439080, 0.8621943, 0.39794892, 0.2547158, 0.18269537, 0.011254772, 0.026440019, -0.004425049, 0
915, 1822455747, 0.86210316, 0.39805615, 0.25486737, 0.18268004, 0.0010408998, 0.017506875, 0.03700161, 0
916, 1822472414, 0.8621273, 0.39801657, 0.25487947, 0.18263595, 0.003535975, -0.017386403, 0.019587517, 0
917, 1822489081, 0.8621875, 0.39792407, 0.25486624, 0.1825717, -0.031960566, 0.002350015, -3.7670135E-4, 0
918, 1822505748, 0.8621754, 0.39793932, 0.2549349, 0.18249957, 0.0024269037, -0.013071708, 0.021196365, 0
919, 1822522415, 0.8621935, 0.39783922, 0.25501078, 0.18252648, 0.044874474, 0.030041035, -0.058802605, 0
920, 1822539082, 0.8621943, 0.39790985, 0.25498155, 0.18240945, -0.028678054, 8.138107E-4, -0.0026044846, 0
921, 1822555749, 0.8621378, 0.3979552, 0.2551277, 0.18237376, -0.023878336, 0.027206443, 0.0055418015, 0
922, 1822572416, 0.8620655, 0.39793593, 0.25535953, 0.18243305, -0.0019224349, 0.022166226, 0.003578186, 0
923, 1822589083, 0.8620572, 0.39793092, 0.2554071, 0.1824159, -0.012579532, 0.0059532677, 0.03042221, 0
924, 1822605750, 0.8620538, 0.39795083, 0.25540158, 0.18239598, -0.018907407, -0.002242282, 0.01228714, 0
925, 1822622417, 0.8620257, 0.3980372, 0.25541836, 0.18231703, -0.017608127, -0.0059897, 0.014966965, 0
926, 1822639084, 0.86202395, 0.39808422, 0.25542343, 0.18221632, -0.016878804, -0.04168025, 0.02482605, 0
927, 1822655751, 0.8620472, 0.39809427, 0.25538749, 0.1821343, 0.0030491638, -0.045210637, 0.018762589, 0
928, 1822672418, 0.8620722, 0.39814013, 0.25532788, 0.18199913, 0.005364758, -0.026202647, 0.004050255, 0
929, 1822689085, 0.8621103, 0.39817545, 0.2552607, 0.18183544, -0.010106138, -0.013392226, 0.009046555, 0
930, 1822705752, 0.8621332, 0.39818844, 0.25525522, 0.18170647, -0.0071700723, 0.0017737988, 0.022015572, 0
931, 1822722419, 0.86211604, 0.39822453, 0.25531736, 0.18162148, -0.024423037, 0.0023462155, 0.007540703, 0
932, 1822739086, 0.86207986, 0.39823666, 0.25541306, 0.18163247, -0.028167773, -0.006523896, 0.014970779, 0
933, 1822755753, 0.862057, 0.39824313, 0.2554573, 0.18166415, -0.034499224, -0.0041975733, 0.023123741, 0
934, 1822772420, 0.86207235, 0.39825618, 0.25538972, 0.1816576, -0.053485755, -0.012431791, 0.021445274, 0
935, 1822789087, 0.8621003, 0.3982654, 0.25528356, 0.181654, -0.042582124, -0.0021893093, 0.014584541, 0
936, 1822805754, 0.8621382, 0.39832345, 0.25512412, 0.18157108, -0.02602406, -0.014527672, 0.01876831, 0
937, 1822822421, 0.86214876, 0.39838248, 0.25500563, 0.1815578, -0.009562778, -0.0137905255, 0.017793655, 0
938, 1822839088, 0.86217093, 0.39841473, 0.2548781, 0.1815607, -0.0012829644, -0.0147485025, 0.0067329407, 0
939, 1822855755, 0.86220044, 0.39843607, 0.25474575, 0.18155949, 0.0024025408, -0.008858936, -0.007016182, 0
940, 1822872422, 0.8622276, 0.39844465, 0.25463393, 0.18156841, 0.010367202, -0.024877662, -0.010276794, 0
941, 1822889089, 0.86224633, 0.39842394, 0.25457698, 0.18160501, -0.012531701, -0.022526084, 7.619858E-4, 0
942, 1822905756, 0.8622703, 0.39839303, 0.25453177, 0.1816226, -0.0320189, -0.002430927, 0.0019817352, 0
943, 1822922423, 0.8622832, 0.39840177, 0.25445816, 0.18164465, -0.027021598, -0.0018670037, 0.01471138, 0
944, 1822939090, 0.86232007, 0.3984092, 0.25433394, 0.18162778, -0.018768607, -0.010496839, 0.027801514, 0
945, 1822955757, 0.8623673, 0.39842865, 0.2541652, 0.18159704, -0.015780685, 0.00580709, 0.05449295, 0
946, 1822972424, 0.86240643, 0.39843112, 0.25400773, 0.18162595, 0.010866306, -7.273112E-4, 0.015111923, 0
947, 1822989091, 0.8624301, 0.39849785, 0.25385514, 0.18158036, 0.023663986, 0.034716703, 0.016647339, 0
948, 1823005758, 0.8624309, 0.3985351, 0.25377044, 0.18161346, 0.02312085, 0.048885413, 0.045793533, 0
949, 1823022425, 0.86250937, 0.39848652, 0.25359762, 0.18158886, -0.0071358746, 0.040738814, 0.06722736, 0
950, 1823039092, 0.8626034, 0.39843664, 0.25337583, 0.18156135, -0.04254368, 0.042606264, 0.09210777, 0
951, 1823055759, 0.8627847, 0.39831597, 0.25295907, 0.1815457, -0.09085847, -0.0010733092, 0.11776829, 0
952, 1823072426, 0.8632508, 0.39781958, 0.2522337, 0.18142751, -0.02997063, -0.008180351, 0.12387657, 0
953, 1823089093, 0.86413157, 0.39682782, 0.2510484, 0.18105094, 0.02751601, -0.011479402, 0.2334013, 0
954, 1823105760, 0.8659582, 0.39440528, 0.24890573, 0.18057439, -0.038906675, -0.067923576, 0.49891663, 0
955, 1823122427, 0.8691846, 0.3899738, 0.2451697, 0.17980698, -0.028136928, -0.31460878, 0.8753481, 0
956, 1823139094, 0.8740794, 0.38373026, 0.23885928, 0.1779963, 0.055527546, -0.61744916, 1.3821115, 0
957, 1823155761, 0.8805167, 0.37596172, 0.22954458, 0.1750791, -0.10196058, -0.8249074, 1.7013712, 0
958, 1823172428, 0.88720304, 0.36874327, 0.21817937, 0.17116402, -0.23273331, -0.77129245, 1.021946, 0
959, 1823189095, 0.8931383, 0.36349168, 0.20611833, 0.16641249, -0.11514761, -0.2645477, 0.03603649, 0
960, 1823205762, 0.8981304, 0.35990763, 0.19456634, 0.16116008, 0.148925, 0.21501388, -0.54990196, 0
961, 1823222429, 0.9018162, 0.35763657, 0.1856296, 0.15609479, 0.41955853, 0.49375376, -0.60389805, 0
962, 1823239096, 0.90446365, 0.35482877, 0.18097039, 0.15261649, 0.44977164, 0.6807065, -0.52987957, 0
963, 1823255763, 0.9062507, 0.3520297, 0.17922208, 0.1505467, 0.48787916, 0.6451138, -0.24477482, 0
964, 1823272430, 0.90753716, 0.34912094, 0.17924638, 0.14953883, 0.10844301, 0.63556445, -0.16720867, 0
965, 1823289097, 0.90847635, 0.3461039, 0.18049127, 0.14935204, -0.2436964, 0.3637347, -0.041337013, 0
966, 1823305764, 0.90933615, 0.34314227, 0.18170664, 0.14947902, -0.47855386, 0.020073699, 0.22716618, 0
967, 1823322431, 0.9102071, 0.34031132, 0.18249694, 0.14968725, -0.4398421, 0.06543856, 0.19890118, 0
968, 1823339098, 0.91127616, 0.33727112, 0.18269539, 0.14982155, 0.080283396, 0.054867737, 0.30442715, 0
969, 1823355765, 0.9128028, 0.333881, 0.18152659, 0.14954203, 0.17482111, 0.055621646, 0.53677845, 0
970, 1823372432, 0.9147218, 0.329826, 0.17958209, 0.14916183, -0.031212466, -0.06423852, 0.6186409, 0
971, 1823389099, 0.91676915, 0.3254242, 0.17765191, 0.14857154, -0.17023976, -0.26794466, 0.5743456, 0
972, 1823405766, 0.918944, 0.32041225, 0.1761111, 0.14786145, -0.19699326, -0.039355043, 0.55816555, 0
973, 1823422433, 0.9211333, 0.31539074, 0.17441864, 0.14703995, 0.10465581, -0.09080482, 0.6073332, 0
974, 1823439100, 0.92340636, 0.30995777, 0.17263806, 0.14643508, 0.2797544, 0.02166444, 0.42093945, 0
975, 1823455767, 0.925654, 0.3039311, 0.1713086, 0.1464383, 0.27028215, 0.092807494, 0.2555895, 0
976, 1823472434, 0.92788935, 0.29754618, 0.17027166, 0.1466127, 0.11770081, 0.07574966, 0.1407423, 0
977, 1823489101, 0.93013084, 0.29081914, 0.1694233, 0.1468907, -0.00692309, 0.03832465, 0.059191704, 0
978, 1823505768, 0.9324765, 0.28408155, 0.16772823, 0.14714815, 0.039360408, -0.14016251, 0.0940752, 0
979, 1823522435, 0.9350222, 0.27746516, 0.16499715, 0.14670622, -0.11437035, -0.123570256, 0.07097435, 0
980, 1823539102, 0.93765265, 0.27113253, 0.16172731, 0.14539348, -0.37298667, -0.19460602, -0.020082474, 0
981, 1823555769, 0.94021136, 0.2647501, 0.15863892, 0.14402798, -0.34522793, 0.009104353, -0.22179794, 0
982, 1823572436, 0.9426317, 0.2586154, 0.15573448, 0.14251503, -0.0823054, 0.18302806, -0.29261875, 0
983, 1823589103, 0.94475627, 0.2530839, 0.15319692, 0.1411201, 0.115406, 0.31548786, -0.5378742, 0
984, 1823605770, 0.94668686, 0.24771288, 0.15119568, 0.13986506, -0.04965005, 0.22385068, -0.33815098, 0
985, 1823622437, 0.9485966, 0.24196066, 0.14962336, 0.13868226, -0.079000875, 0.20118333, -0.33928585, 0
986, 1823639104, 0.95032775, 0.2369632, 0.14784722, 0.13735671, 0.03759857, 0.019964624, -0.14565086, 0
987, 1823655771, 0.9521276, 0.23234962, 0.14494598, 0.13585882, 0.093282126, 0.09028448, -0.22662067, 0
988, 1823672438, 0.9539969, 0.2275676, 0.14160141, 0.1343577, -0.1595945, -3.3079916E-5, -0.345747, 0
989, 1823689105, 0.95567006, 0.22312823, 0.13884977, 0.13277568, -0.30832216, 0.006833238, -0.31514645, 0
990, 1823705772, 0.957172, 0.21929902, 0.13635668, 0.1309076, -0.123136304, 0.1876825, -0.23664188, 0
991, 1823722439, 0.9585506, 0.2160647, 0.13374244, 0.12887964, -0.15517086, 0.10543508, -0.16601944, 0
992, 1823739106, 0.9599302, 0.21291007, 0.13076255, 0.1269045, -0.078982994, 0.16973194, -0.1953373, 0
993, 1823755773, 0.9611712, 0.20977934, 0.12836166, 0.12516434, -0.20562533, 0.21770296, -0.2604456, 0
994, 1823772440, 0.9623398, 0.20674713, 0.12619796, 0.12341823, -0.11478552, 0.23058558, -0.16587448, 0
995, 1823789107, 0.96343726, 0.2038657, 0.12401541, 0.12185101, -0.1157454, -0.061939016, -0.10432434, 0
996, 1823805774, 0.9645801, 0.20096943, 0.12173245, 0.119908, -0.113063805, -0.23536943, -0.270154, 0
997, 1823822441, 0.96565217, 0.1978999, 0.119961895, 0.11815574, -0.06006363, -0.052139316, -0.3504858, 0
998, 1823839108, 0.9667011, 0.19498317, 0.11838352, 0.11600067, -0.088116296, -0.16761851, -0.13101864, 0
999, 1823855775, 0.9677024, 0.19228806, 0.116464876, 0.114077024, -0.11237047, 0.055204906, -0.13551998, 0
1000, 1823872442, 0.9686889, 0.18962944, 0.11476829, 0.11185242, -0.15652914, 0.028315516, -0.11870575, 0
1001, 1823889109, 0.96963, 0.18697771, 0.11298222, 0.109964415, -0.2624735, 0.020047994, -0.2261486, 0
1002, 1823905776, 0.97043276, 0.18468465, 0.11190029, 0.10784452, -0.23353863, -0.13031252, -0.3744974, 0
1003, 1823922443, 0.97108287, 0.18287663, 0.111253515, 0.10572166, 0.061838325, -0.03828274, -0.2642765, 0
1004, 1823939110, 0.97166175, 0.18139067, 0.11061025, 0.10361717, 0.11286343, -0.015990788, -0.19843197, 0
1005, 1823955777, 0.9721662, 0.18022431, 0.10974762, 0.10182242, 0.12251382, 0.2865397, -0.09682751, 0
1006, 1823972444, 0.9729072, 0.17807162, 0.10839224, 0.099966325, 0.037009947, 0.026343796, -0.16063976, 0
1007, 1823989111, 0.9734393, 0.17657487, 0.10731135, 0.09859845, -0.10844938, -0.011821377, -0.3829422, 0
1008, 1824005778, 0.97387683, 0.17517173, 0.10697737, 0.097131975, -0.049136978, 0.062204774, -0.37592316, 0
1009, 1824022445, 0.9741375, 0.17435622, 0.10709806, 0.0958451, 0.09451586, 0.11922662, -0.48551178, 0
1010, 1824039112, 0.9742011, 0.17417164, 0.107734635, 0.09481497, 0.22859658, 0.012956599, -0.50196266, 0
1011, 1824055779, 0.97405434, 0.17480455, 0.10877848, 0.09396138, 0.20749557, 0.028059592, -0.4783888, 0
1012, 1824072446, 0.97383004, 0.17573993, 0.10983885, 0.09330773, 0.1314406, 0.0535375, -0.57156277, 0
1013, 1824089113, 0.97355497, 0.17685804, 0.11083033, 0.09289142, 0.0798642, 0.07231985, -0.66251564, 0
1014, 1824105780, 0.97317624, 0.17862645, 0.11162122, 0.09252905, 0.03672586, -0.09610174, -0.5674591, 0
1015, 1824122447, 0.9726505, 0.1811678, 0.1124358, 0.092129335, 0.04960814, -0.07704, -0.48286915, 0
1016, 1824139114, 0.9719937, 0.1843667, 0.11322949, 0.091740616, 0.05860141, 0.038912263, -0.40814877, 0
1017, 1824155781, 0.9712194, 0.1883659, 0.11371525, 0.091214955, 0.08174193, -0.040727638, -0.3137865, 0
1018, 1824172448, 0.9703176, 0.19307464, 0.11398291, 0.09063196, 0.10541676, -0.06775102, -0.2673416, 0
1019, 1824189115, 0.96941733, 0.197688, 0.11410128, 0.09017074, 0.05568412, 0.054209713, -0.21258545, 0
1020, 1824205782, 0.968597, 0.2019554, 0.113978975, 0.089682214, 0.11958055, 0.03557879, -0.06738663, 0
1021, 1824222449, 0.96783507, 0.2060582, 0.113591515, 0.08906539, 0.07193038, -0.050269183, -0.04638481, 0
1022, 1824239116, 0.9670103, 0.21020685, 0.113462426, 0.08849047, -0.021466073, -0.035853937, -0.13789749, 0
1023, 1824255783, 0.9661019, 0.21436091, 0.11381211, 0.08799759, -0.07560739, 0.15202434, -0.21961594, 0
1024, 1824272450, 0.9652619, 0.21786153, 0.11455782, 0.08765126, 0.015095729, 0.08732718, -0.23165798, 0
1025, 1824289117, 0.96448433, 0.22123815, 0.115006216, 0.08716396, 0.030651448, -0.006442761, -0.1030035, 0
1026, 1824305784, 0.96383786, 0.22416927, 0.11506793, 0.08674237, -0.16885063, -0.050715536, -0.15169144, 0
1027, 1824322451, 0.9631133, 0.22710143, 0.1156411, 0.08640059, -0.21004117, -0.028484939, -0.27909184, 0
1028, 1824339118, 0.96237147, 0.23019417, 0.116065376, 0.08591227, -0.20110388, -0.06284246, -0.2558956, 0
1029, 1824355785, 0.96151394, 0.23347011, 0.117011935, 0.08538837, -0.1958093, 0.06930533, -0.4119234, 0
1030, 1824372452, 0.96051943, 0.23675254, 0.11869729, 0.08521693, -0.040073413, 0.3074745, -0.5065403, 0
1031, 1824389119, 0.9595302, 0.23963481, 0.12079471, 0.08535747, 0.1426282, 0.28220052, -0.45508862, 0
1032, 1824405786, 0.95845944, 0.24280311, 0.122883014, 0.08545228, 0.18607123, 0.115767196, -0.44844913, 0
1033, 1824422453, 0.9571883, 0.2465984, 0.12513575, 0.08556444, 0.078944996, 0.12668043, -0.42905426, 0
1034, 1824439120, 0.9557559, 0.25056723, 0.12798642, 0.08582912, -0.0039863535, 0.3504446, -0.43201542, 0
1035, 1824455787, 0.9543203, 0.25401476, 0.13116808, 0.08685847, 0.08667933, 0.51927024, -0.33326054, 0
1036, 1824472454, 0.9528238, 0.25769714, 0.13399693, 0.088114455, 0.14370877, 0.05330024, -0.01023674, 0
1037, 1824489121, 0.9513896, 0.2617238, 0.13584304, 0.08891135, -0.01410445, -0.22549596, 0.12843323, 0
1038, 1824505788, 0.9500062, 0.26553863, 0.13758871, 0.089705676, -0.20074001, -0.23663428, 0.06809139, 0
1039, 1824522455, 0.9484794, 0.26965258, 0.13960987, 0.09046276, -0.2786972, -0.19157273, 0.005306244, 0
1040, 1824539122, 0.9467422, 0.2739278, 0.14249276, 0.09131663, -0.16632996, 0.15090746, -0.20471096, 0
1041, 1824555789, 0.94483364, 0.2784246, 0.14584893, 0.09218114, 0.20560789, 0.040989816, -0.05328846, 0
1042, 1824572456, 0.942921, 0.2827913, 0.14926319, 0.093004934, 0.18446423, 0.117960304, 0.148345, 0
1043, 1824589123, 0.9410732, 0.28710055, 0.15225656, 0.09366158, 0.14685762, -0.10360719, 0.49729252, 0
1044, 1824605790, 0.93924356, 0.29164842, 0.1546815, 0.09400178, -0.09970377, -0.1425065, 0.48414898, 0
1045, 1824622457, 0.93735355, 0.29577273, 0.15790342, 0.09462243, -0.18645048, -0.008560993, 0.1923008, 0
1046, 1824639124, 0.9354797, 0.29937696, 0.16172457, 0.09537502, -0.006051837, -0.13434581, 0.24028015, 0
1047, 1824655791, 0.933642, 0.30303556, 0.16528083, 0.09573199, 0.047356695, -0.15213387, 0.43265152, 0
1048, 1824672458, 0.9320572, 0.30627277, 0.16805333, 0.096045695, -0.11131504, -0.08225612, 0.4699402, 0
1049, 1824689125, 0.9305427, 0.30926886, 0.1707126, 0.09643859, -0.22430843, -0.16520335, 0.35210037, 0
1050, 1824705792, 0.92906636, 0.3119895, 0.17363542, 0.09669199, -0.112440765, -0.10226254, 0.3388281, 0
1051, 1824722459, 0.9277184, 0.31446376, 0.17630059, 0.096795425, 0.010197108, -0.09045033, 0.38875008, 0
1052, 1824739126, 0.92645985, 0.3167748, 0.17874604, 0.09682952, -0.014878363, -0.017981617, 0.3461666, 0
1053, 1824755793, 0.9252516, 0.31896144, 0.18106179, 0.09690127, 0.024157727, -8.9405185E-5, 0.20168686, 0
1054, 1824772460, 0.92404515, 0.3210325, 0.18345656, 0.097069986, 0.067262985, 0.03116754, 0.16584301, 0
1055, 1824789127, 0.9229, 0.3228605, 0.18583901, 0.09736906, 0.051612716, -0.077417515, 0.20589638, 0
1056, 1824805794, 0.9218285, 0.3245128, 0.18813069, 0.09762479, 0.05612399, -0.029420564, 0.17013264, 0
1057, 1824822461, 0.9208624, 0.3258652, 0.19034019, 0.09795417, 0.06338045, -0.0017986088, 0.17259979, 0
1058, 1824839128, 0.91997594, 0.32728016, 0.19204868, 0.09823149, 0.043641575, -0.070371486, 0.18328476, 0
1059, 1824855795, 0.9191519, 0.32862, 0.19354811, 0.09852935, 0.055582754, -0.03617937, 0.09338474, 0
1060, 1824872462, 0.9184507, 0.32964888, 0.19493504, 0.09889597, 0.13975337, -0.07779637, 0.10198021, 0
1061, 1824889129, 0.9178352, 0.33049992, 0.1961949, 0.099278875, 0.041911136, -0.16834392, 0.18327332, 0
1062, 1824905796, 0.91731673, 0.33115172, 0.19736084, 0.09958716, 0.0066692913, -0.07292088, 0.10429764, 0
1063, 1824922463, 0.91681445, 0.33176485, 0.19850536, 0.099895746, 0.05088183, 0.019172942, 0.038702965, 0
1064, 1824939130, 0.91625756, 0.33244732, 0.19973405, 0.10028662, 0.06268119, 0.049427878, 0.015295029, 0
1065, 1824955797, 0.9156688, 0.33312297, 0.20104614, 0.100799315, 0.09723383, 0.009272882, 0.06724167, 0
1066, 1824972464, 0.91513836, 0.33374014, 0.20216961, 0.101325154, 0.052968882, -0.057369072, 0.14776707, 0
1067, 1824989131, 0.9147312, 0.33405086, 0.20322126, 0.10187274, 0.01971362, -0.037887905, 0.07474613, 0
1068, 1825005798, 0.9144245, 0.33418873, 0.20413527, 0.10234601, -0.0075723953, -0.065197386, 0.06459522, 0
1069, 1825022465, 0.9141489, 0.3343981, 0.2048665, 0.10266275, -0.07734163, -0.035427026, 0.023706436, 0
1070, 1825039132, 0.913859, 0.33475903, 0.20546661, 0.102867715, -0.06762742, 0.04439146, 0.093979836, 0
1071, 1825055799, 0.91355294, 0.33519948, 0.20600511, 0.103074625, -0.057613928, 0.09102431, 0.08224678, 0
1072, 1825072466, 0.91326994, 0.335597, 0.20651494, 0.10326939, -0.006752773, 0.054214407, 0.13004208, 0
1073, 1825089133, 0.9130488, 0.3359412, 0.20687479, 0.10338654, 0.015585223, 0.009641231, 0.09453297, 0
1074, 1825105800, 0.91293794, 0.3361069, 0.2070493, 0.103475355, -0.0053748162, -0.031163294, 0.08157253, 0
1075, 1825122467, 0.9128505, 0.33624586, 0.20719068, 0.103512555, -0.05158791, -0.0038100018, 0.06857777, 0
1076, 1825139134, 0.9127526, 0.33632183, 0.20746359, 0.10358298, 0.00876819, 0.04998465, 0.004658699, 0
1077, 1825155801, 0.9126559, 0.33637193, 0.20777915, 0.10364003, 0.042845085, 0.085371666, -0.0036554337, 0
1078, 1825172468, 0.9125717, 0.33640718, 0.20807172, 0.10367874, -0.0011002425, 0.07899484, 0.0018253326, 0
1079, 1825189135, 0.9125059, 0.3364299, 0.20832774, 0.103670344, -0.0934615, 0.06466252, 0.03227043, 0
1080, 1825205802, 0.9124636, 0.33637083, 0.2085995, 0.10368843, -0.11185516, 0.050516833, 0.022758484, 0
1081, 1825222469, 0.91242594, 0.3364026, 0.2087495, 0.103615485, -0.07598658, 0.029715825, 0.006293297, 0
1082, 1825239136, 0.9123562, 0.33653054, 0.20889199, 0.10352591, -0.0296424, 0.10770396, -0.0045776367, 0
1083, 1825255803, 0.91226065, 0.3366621, 0.20911054, 0.103498995, 0.037195016, 0.10400102, -0.020262718, 0
1084, 1825272470, 0.9121469, 0.33679074, 0.20937757, 0.10354336, 0.070067175, 0.0490184, -0.03150463, 0
1085, 1825289137, 0.9120366, 0.3368585, 0.20968817, 0.10366571, 0.046538975, 0.016514702, -0.046016693, 0
1086, 1825305804, 0.91196936, 0.33687305, 0.20992233, 0.10373608, 0.055032913, -0.022241775, -0.044971466, 0
1087, 1825322471, 0.912009, 0.33686897, 0.20979582, 0.10365727, -0.013166701, -0.08435044, 0.04011917, 0
1088, 1825339138, 0.91224164, 0.33671433, 0.2091798, 0.10335756, -0.07552101, -0.13615382, 0.028536797, 0
1089, 1825355805, 0.9127305, 0.33657777, 0.20767583, 0.10251437, -0.15579523, -0.17304999, 0.11780453, 0
1090, 1825372472, 0.9133818, 0.33660308, 0.2054022, 0.10120295, -0.31884012, -0.0757928, 0.13040447, 0
1091, 1825389139, 0.9140084, 0.33652553, 0.20331776, 0.100006804, -0.38712892, 0.033098694, -0.021247864, 0
1092, 1825405806, 0.91465795, 0.33656198, 0.20101461, 0.09859173, -0.1399047, -0.061605535, 0.026083946, 0
1093, 1825422473, 0.9156196, 0.33623996, 0.19791447, 0.0970231, -0.07536499, -0.057954226, 0.19923115, 0
1094, 1825439140, 0.916737, 0.3353193, 0.1948334, 0.09588748, -0.2399938, 0.07286634, 0.39851093, 0
1095, 1825455807, 0.91785234, 0.33409193, 0.1920651, 0.09508449, -0.13107805, -0.07110103, 0.58384037, 0
1096, 1825472474, 0.9191502, 0.33266437, 0.18879384, 0.09409909, 0.13843209, -0.14114843, 0.7605419, 0
1097, 1825489141, 0.92069924, 0.33095416, 0.18471354, 0.093078665, 0.17322075, -0.18731011, 0.74498844, 0
1098, 1825505808, 0.92254966, 0.3284977, 0.18023214, 0.09223797, 0.08352478, -0.2152146, 0.8014412, 0
1099, 1825522475, 0.92460823, 0.32565615, 0.17510106, 0.09158407, 0.15187985, -0.24460073, 0.8418646, 0
1100, 1825539142, 0.9268607, 0.32234952, 0.1695456, 0.09096438, 0.18458326, -0.26294288, 0.6859026, 0
1101, 1825555809, 0.9293202, 0.3183189, 0.16399066, 0.09024621, 0.13814117, -0.074857615, 0.6595001, 0
1102, 1825572476, 0.93201625, 0.31332293, 0.15849085, 0.08975049, 0.09159595, -0.2278319, 0.8303728, 0
1103, 1825589143, 0.9348183, 0.30808732, 0.15276608, 0.08865362, 0.08640206, -0.30338934, 0.8683634, 0
1104, 1825605810, 0.9378517, 0.3022176, 0.14627436, 0.08776528, 0.2023969, -0.04775466, 0.87307453, 0
1105, 1825622477, 0.9409598, 0.29572633, 0.13973184, 0.0872693, 0.33703306, -0.03979514, 0.7621393, 0
1106, 1825639144, 0.94397724, 0.28899696, 0.13342108, 0.08710285, 0.50740635, -0.15195595, 0.6810856, 0
1107, 1825655811, 0.9471685, 0.28112358, 0.12773877, 0.08674379, 0.4039421, -0.18044513, 0.749197, 0
1108, 1825672478, 0.95021206, 0.2729839, 0.12283444, 0.08653842, 0.3562388, 0.035192113, 0.678524, 0
1109, 1825689145, 0.9532659, 0.26429683, 0.117933765, 0.08673589, 0.31119418, 0.03206338, 0.7346115, 0
1110, 1825705812, 0.9562858, 0.25514463, 0.11329862, 0.08707658, 0.18472172, 0.09348273, 0.26010895, 0
1111, 1825722479, 0.959073, 0.24576907, 0.109848715, 0.08780677, -0.054949433, 0.24667941, 0.012281418, 0
1112, 1825739146, 0.96160823, 0.23649879, 0.1073423, 0.08863246, -0.091276765, 0.22638957, -0.024381638, 0
1113, 1825755813, 0.9640043, 0.22720248, 0.10525435, 0.08942358, 0.02937709, 0.3307976, -0.1164608, 0
1114, 1825772480, 0.9663414, 0.21777831, 0.10321916, 0.090017326, -0.027516121, 0.3247804, -0.37399197, 0
1115, 1825789147, 0.9683324, 0.20923348, 0.10178473, 0.09051841, -0.16222486, 0.17766531, -0.6300554, 0
1116, 1825805814, 0.97009, 0.20134684, 0.10058974, 0.090920776, -0.32021835, 0.1636202, -0.74703026, 0
1117, 1825822481, 0.97161347, 0.19401371, 0.10008706, 0.091151476, -0.3310387, 0.1812775, -0.9495754, 0
1118, 1825839148, 0.97290564, 0.18748719, 0.09996204, 0.09116531, -0.13638414, 0.1620583, -0.8042927, 0
1119, 1825855815, 0.9740443, 0.18161568, 0.09975194, 0.09112195, -0.09301894, 0.21183027, -0.8193407, 0
1120, 1825872482, 0.97503746, 0.17618255, 0.09969376, 0.09123052, -0.105894625, 0.1591914, -0.8552542, 0
1121, 1825889149, 0.9758938, 0.17151867, 0.09932573, 0.09136442, -0.106733866, 0.12118135, -0.78486633, 0
1122, 1825905816, 0.97685903, 0.16655804, 0.098300375, 0.091334686, -0.15871292, 0.1564984, -0.6793213, 0
1123, 1825922483, 0.97773635, 0.16228199, 0.096878424, 0.09116396, -0.22008784, 0.11247653, -0.70389366, 0
1124, 1825939150, 0.97848743, 0.15845281, 0.09545787, 0.091340154, -0.050747834, 0.15945302, -0.74649906, 0
1125, 1825955817, 0.97911793, 0.15548226, 0.09401212, 0.09118887, 0.055030845, 0.031080259, -0.6138449, 0
1126, 1825972484, 0.9796566, 0.15301022, 0.09252181, 0.09110963, -0.036069404, 0.07148525, -0.7204571, 0
1127, 1825989151, 0.9801791, 0.15049626, 0.091010705, 0.09119917, 0.008999693, 0.08084743, -0.6569786, 0
1128, 1826005818, 0.9806102, 0.1484804, 0.08984807, 0.09102142, 0.084159166, 0.046077754, -0.40598583, 0
1129, 1826022485, 0.98106396, 0.14653516, 0.08800503, 0.09108406, 0.009735721, -0.015600869, -0.36857986, 0
1130, 1826039152, 0.9814184, 0.14504008, 0.08630997, 0.09128134, 0.010533607, -0.029890053, -0.58733463, 0
1131, 1826055819, 0.98165494, 0.14424789, 0.0850396, 0.09118442, -0.04536855, -0.086331435, -0.4117031, 0
