DeviceTag:,Xsens DOT 2,,,,,,,,,,,,,,,,,
FirmwareVersion:,1.3.0,,,,,,,,,,,,,,,,,
AppVersion:,2020.1.1,,,,,,,,,,,,,,,,,
Measurement Mode:,Sensor fusion Mode - Extended (Quaternion),,,,,,,,,,,,,,,,,
StartTime:,2020-06-15 13:38:29.109 +0200,,,,,,,,,,,,,,,,,
© Xsens Technologies B. V. 2005-2020,,,,,,,,,,,,,,,,,,,
PacketCounter,SampleTimeFine,Quat_W,Quat_X,Quat_Y,Quat_Z,FreeAcc_X,FreeAcc_Y,FreeAcc_Z,Status
1, 214883958, 0.771922, -0.26037446, -0.46585235, -0.345432, -0.0063381568, 2.67545E-4, 0.10243511, 0
2, 214900625, 0.77196217, -0.26037198, -0.46580058, -0.3454139, 0.028121283, -0.018722339, 0.12853146, 0
3, 214917292, 0.7718754, -0.26040703, -0.46594068, -0.3453925, 0.0023851066, -0.0052127694, 0.124967575, 0
4, 214933959, 0.77183586, -0.26042774, -0.46601266, -0.3453682, -0.0036948926, 0.017013136, 0.088005066, 0
5, 214950626, 0.7718226, -0.26037753, -0.46605307, -0.34538126, -0.0077766865, 0.016421944, 0.0996027, 0
6, 214967293, 0.7718237, -0.26029366, -0.4660988, -0.34538016, -0.0016631599, 0.022301229, 0.12954521, 0
7, 214983960, 0.7718091, -0.26020366, -0.46619365, -0.34535265, 0.025772162, 0.04213219, 0.119550705, 0
8, 215000627, 0.77177656, -0.26008365, -0.4663392, -0.34531903, 0.030151451, 0.008736898, 0.16219234, 0
9, 215017294, 0.77173734, -0.2599979, -0.46643847, -0.34533715, 0.011374351, -0.015068573, 0.11852646, 0
10, 215033961, 0.77168983, -0.25992507, -0.46655816, -0.3453364, -0.048064, 0.03609958, 0.109674454, 0
11, 215050628, 0.7716988, -0.2598446, -0.46656096, -0.3453732, -3.500213E-4, -0.06889831, 0.05943489, 0
12, 215067295, 0.77164286, -0.25976378, -0.46665132, -0.3454367, 0.019634273, -0.014254538, 0.09342003, 0
13, 215083962, 0.7716785, -0.25975573, -0.46658716, -0.34544992, 0.024517583, -0.030488508, 0.11454582, 0
14, 215100629, 0.77168274, -0.25973794, -0.46656147, -0.34548858, 0.008929119, -0.010938948, 0.043868065, 0
15, 215117296, 0.77164644, -0.25978112, -0.46648535, -0.34564006, 0.0073189316, -0.0026582396, 0.115530014, 0
16, 215133963, 0.7718382, -0.25955135, -0.46654812, -0.3452996, 0.023993893, 0.01167967, 0.12540531, 0
17, 215150630, 0.77184707, -0.25953904, -0.46650562, -0.34534636, -0.028555792, 0.007661801, 0.088570595, 0
18, 215167297, 0.7717467, -0.25964287, -0.4664379, -0.34558415, 0.016352879, -3.348224E-4, 0.121902466, 0
19, 215183964, 0.7721278, -0.25910965, -0.46672574, -0.34474343, 0.007790991, 7.054069E-4, 0.099267006, 0
20, 215200631, 0.7720518, -0.25917655, -0.46671072, -0.34488392, -0.016757436, 0.0020125106, 0.096241, 0
21, 215217298, 0.7720443, -0.25913352, -0.46677917, -0.34484023, -0.0256537, -0.006502886, 0.07785416, 0
22, 215233965, 0.77210474, -0.25897446, -0.46691728, -0.34463727, -0.013145914, -0.0049910443, 0.107536316, 0
23, 215250632, 0.77226084, -0.25871295, -0.4670854, -0.3442558, 0.00934083, -0.015331647, 0.12060261, 0
24, 215267299, 0.7722482, -0.25868377, -0.46712863, -0.3442475, -0.011225491, 0.007491037, 0.11151981, 0
25, 215283966, 0.7722578, -0.25861046, -0.46720737, -0.34417403, 0.0051855007, 0.0079590725, 0.11527729, 0
26, 215300633, 0.77225864, -0.2585329, -0.46729794, -0.34410766, 0.0143638365, 0.004715453, 0.11195564, 0
27, 215317300, 0.7725169, -0.25810695, -0.46760705, -0.34342712, 0.038671095, 0.008004446, 0.11777687, 0
28, 215333967, 0.7720808, -0.25866973, -0.46732014, -0.34437358, 0.018158415, -0.010540424, 0.109129906, 0
29, 215350634, 0.7720677, -0.2586614, -0.46733218, -0.34439263, 0.010802157, 0.0052044992, 0.10339737, 0
30, 215367301, 0.77210176, -0.2585925, -0.46736252, -0.34432685, -0.0023287814, -0.014372777, 0.13216114, 0
31, 215383968, 0.77202135, -0.2587137, -0.4672688, -0.34454343, -0.012859594, 4.6513046E-4, 0.110821724, 0
32, 215400635, 0.77194726, -0.2588077, -0.4672259, -0.34469703, -0.024952317, 0.0091877235, 0.10095978, 0
33, 215417302, 0.7719282, -0.2587907, -0.46725193, -0.3447173, 0.0021649464, 0.0074791904, 0.10302353, 0
34, 215433969, 0.7719172, -0.25878462, -0.46727452, -0.34471568, 0.018381706, 0.003278041, 0.12283325, 0
35, 215450636, 0.7717901, -0.2589437, -0.46720308, -0.34497777, -2.8207336E-4, 0.013197993, 0.09800053, 0
36, 215467303, 0.77176315, -0.25897112, -0.4672026, -0.34501818, -0.014619536, -0.011389103, 0.09422779, 0
37, 215483970, 0.77188164, -0.25879478, -0.46730208, -0.34475034, 0.010286067, 0.0013868979, 0.104979515, 0
38, 215500637, 0.7721242, -0.25845265, -0.46748435, -0.34421626, -0.0062067313, -0.0076986803, 0.10811424, 0
39, 215517304, 0.7718584, -0.25878677, -0.4672919, -0.34482238, 0.0048017288, 0.0053938148, 0.09343052, 0
40, 215533971, 0.77186793, -0.25873637, -0.46733165, -0.3447849, -0.01286317, -0.0038837611, 0.10672665, 0
41, 215550638, 0.7717946, -0.25880557, -0.46730804, -0.34492898, 0.010254998, 0.0055091474, 0.12735844, 0
42, 215567305, 0.7716661, -0.25896475, -0.46721718, -0.34521988, -0.0017326724, -1.1645025E-4, 0.1118927, 0
43, 215583972, 0.7716459, -0.25897098, -0.46721074, -0.3452692, 0.022577714, 0.005394262, 0.097922325, 0
44, 215600639, 0.77165204, -0.2589483, -0.467222, -0.3452572, 0.015479166, 0.0046247067, 0.12611675, 0
45, 215617306, 0.7717899, -0.25873893, -0.46732453, -0.34496745, -0.0037331134, 0.0048265387, 0.08638382, 0
46, 215633973, 0.771803, -0.2586781, -0.46736526, -0.3449284, -0.01986896, 0.005153091, 0.1199522, 0
47, 215650640, 0.77182657, -0.25862175, -0.467384, -0.3448923, 0.0064892517, -0.0016159987, 0.111224174, 0
48, 215667307, 0.7718347, -0.2585811, -0.46739906, -0.34488422, 0.010470241, 0.007567255, 0.12032223, 0
49, 215683974, 0.7718438, -0.25856683, -0.4673968, -0.3448775, 0.033937983, 0.0038602923, 0.116291046, 0
50, 215700641, 0.77194947, -0.25843808, -0.46744943, -0.34466615, 0.0032751353, -0.008087146, 0.13363361, 0
51, 215717308, 0.77196616, -0.2584165, -0.4674499, -0.34464413, -0.03392435, 0.0034143839, 0.0717783, 0
52, 215733975, 0.7718977, -0.25846815, -0.46744686, -0.34476337, -0.01874782, 0.013271306, 0.105737686, 0
53, 215750642, 0.7719278, -0.25836828, -0.46755335, -0.34462637, -9.3383715E-4, 0.018244915, 0.1017313, 0
54, 215767309, 0.77194554, -0.2582983, -0.4676288, -0.34453654, 0.030695258, -0.008181245, 0.11463165, 0
55, 215783976, 0.77187747, -0.25836068, -0.46761543, -0.34466046, -0.0029108091, 0.0071803536, 0.11080551, 0
56, 215800643, 0.77203125, -0.25812212, -0.46777725, -0.34427494, -0.0049588582, -0.0064753937, 0.109033585, 0
57, 215817310, 0.7720038, -0.25809512, -0.46785504, -0.34425107, -0.025638277, 0.0020015584, 0.09744263, 0
58, 215833977, 0.77191544, -0.25814348, -0.46788558, -0.34437168, -0.0059112473, -0.0025064743, 0.11073303, 0
59, 215850644, 0.7718922, -0.25810874, -0.46792546, -0.3443954, 0.0150252115, -0.0072149984, 0.0931406, 0
60, 215867311, 0.77184606, -0.25811192, -0.4679742, -0.34443024, 0.020563863, 0.021565648, 0.14860725, 0
61, 215883978, 0.7717858, -0.25820628, -0.46793377, -0.3445495, 0.007576195, 0.01014056, 0.10704708, 0
62, 215900645, 0.7719625, -0.25795996, -0.46807706, -0.34414327, -0.022741102, 0.0017067449, 0.087675095, 0
63, 215917312, 0.7720971, -0.2577741, -0.46820688, -0.3438038, 0.009808643, 2.3446509E-4, 0.11465931, 0
64, 215933979, 0.77210665, -0.25776035, -0.46821368, -0.34378347, 0.008385759, -0.006385318, 0.1007843, 0
65, 215950646, 0.772006, -0.25790107, -0.4681259, -0.34402338, -0.0096224565, 0.0028267684, 0.1147871, 0
66, 215967313, 0.7720828, -0.2577865, -0.46819177, -0.34384704, 0.0049642227, -0.013522534, 0.101011276, 0
67, 215983980, 0.77203494, -0.25782466, -0.46816236, -0.34396598, -0.010592726, -0.014239117, 0.095731735, 0
68, 216000647, 0.7719809, -0.25787333, -0.46814665, -0.34407228, -0.011761252, -0.002933831, 0.09919262, 0
69, 216017314, 0.7719555, -0.2578598, -0.46817684, -0.3440982, -0.025181863, 0.015595617, 0.107863426, 0
70, 216033981, 0.7718172, -0.25798336, -0.46815392, -0.344347, 0.00781893, 0.01127377, 0.1141758, 0
71, 216050648, 0.7718016, -0.25799713, -0.4681494, -0.34437788, 0.046317697, -0.018377906, 0.12518787, 0
72, 216067315, 0.77181107, -0.25799105, -0.46815652, -0.34435135, 0.013394014, 0.012069923, 0.102048874, 0
73, 216083982, 0.77184486, -0.2579487, -0.46820715, -0.3442384, 0.002569505, -0.0026097372, 0.10404968, 0
74, 216100649, 0.7718898, -0.25788885, -0.4682456, -0.34413004, -0.022573467, -0.002078, 0.09516525, 0
75, 216117316, 0.771788, -0.25799784, -0.46820417, -0.3443331, -0.02921292, -0.014696424, 0.10195637, 0
76, 216133983, 0.7717613, -0.25802603, -0.46817318, -0.3444138, 0.007672082, -0.012810645, 0.11080742, 0
77, 216150650, 0.77170616, -0.2580893, -0.46813923, -0.34453645, 0.014448771, 0.013436705, 0.118323326, 0
78, 216167317, 0.7717029, -0.25806558, -0.46818766, -0.34449553, 0.008479634, 0.013863838, 0.12796974, 0
79, 216183984, 0.77162176, -0.2581578, -0.46817085, -0.34463102, -0.009303057, 0.0023301225, 0.09131622, 0
80, 216200651, 0.77155966, -0.2581941, -0.46818823, -0.34471932, -0.008680573, 0.0072261738, 0.11845875, 0
81, 216217318, 0.77156436, -0.25816318, -0.46822467, -0.34468246, 0.0321016, -0.00627982, 0.114889145, 0
82, 216233985, 0.7716133, -0.25809336, -0.46823576, -0.34461018, 0.0132681765, 0.002925561, 0.12843704, 0
83, 216250652, 0.771744, -0.25791487, -0.46831816, -0.3443389, -0.009186829, 0.020401591, 0.10133743, 0
84, 216267319, 0.7717155, -0.25795314, -0.46828845, -0.34441447, -0.032461904, 0.001500666, 0.0987072, 0
85, 216283986, 0.7718142, -0.25779027, -0.46837986, -0.3441911, -0.009839934, -0.004426674, 0.105101585, 0
86, 216300653, 0.7717505, -0.25783092, -0.46836686, -0.34432095, 1.1622674E-5, -0.006623136, 0.11150265, 0
87, 216317320, 0.7717151, -0.25784993, -0.46836844, -0.34438387, 0.017090024, 0.015145238, 0.124238014, 0
88, 216333987, 0.77176654, -0.25780475, -0.4683966, -0.34426412, 0.036617458, 0.0046678446, 0.13489532, 0
89, 216350654, 0.7717941, -0.2577877, -0.46839014, -0.34422395, 7.1524146E-6, 0.014956369, 0.095973015, 0
90, 216367321, 0.77180684, -0.25772923, -0.46845457, -0.34415135, -0.025518026, 0.008332786, 0.094371796, 0
91, 216383988, 0.77181506, -0.2576841, -0.46850094, -0.34410366, -0.0118893245, -0.004982774, 0.12739563, 0
92, 216400655, 0.77169025, -0.25783646, -0.46843123, -0.34436435, -0.0038086607, -0.004476741, 0.101327896, 0
93, 216417322, 0.7716836, -0.2578002, -0.46847656, -0.34434494, -0.00659095, 0.011262595, 0.102612495, 0
94, 216433989, 0.77167255, -0.25779563, -0.46851066, -0.34432662, 0.008957058, 0.012216771, 0.11199474, 0
95, 216450656, 0.7716621, -0.25779966, -0.46851626, -0.34433937, 0.012925307, -0.01770446, 0.09670544, 0
96, 216467323, 0.7716755, -0.25777993, -0.46852326, -0.34431455, 0.011168943, -0.007845752, 0.12071705, 0
97, 216483990, 0.77164155, -0.25782496, -0.4684973, -0.34439227, -9.711638E-4, 0.041005015, 0.10807896, 0
98, 216500657, 0.77161807, -0.25786546, -0.46848002, -0.34443817, -0.014875681, 0.010952582, 0.10230827, 0
99, 216517324, 0.7716825, -0.25773418, -0.4685816, -0.34425378, -0.030734597, 0.0021448303, 0.0908699, 0
100, 216533991, 0.77168334, -0.25767422, -0.4686645, -0.34418362, 0.008248075, -0.011871891, 0.11290264, 0
101, 216550658, 0.7717344, -0.25758758, -0.46872643, -0.3440496, 0.02976589, 0.0029108091, 0.11437321, 0
102, 216567325, 0.7716902, -0.25761214, -0.46875134, -0.34409648, -1.1779133E-4, -0.001155115, 0.11676216, 0
103, 216583992, 0.77164716, -0.25762984, -0.46879107, -0.34412548, -0.005033288, -0.012277567, 0.09279537, 0
104, 216600659, 0.7716027, -0.25762373, -0.4688472, -0.34415358, -0.0031781306, 0.0062851845, 0.09227371, 0
105, 216617326, 0.7716395, -0.25754297, -0.46890035, -0.34405917, -0.010907879, 0.0063819652, 0.09992981, 0
106, 216633993, 0.77168685, -0.25747985, -0.46892184, -0.3439707, 0.008900733, 0.0069056563, 0.120565414, 0
107, 216650660, 0.77168167, -0.25749126, -0.46892095, -0.343975, -0.017742012, 0.025346816, 0.08715248, 0
108, 216667327, 0.7715165, -0.2576704, -0.46887273, -0.3442771, -0.0020225688, 0.011122452, 0.09643173, 0
109, 216683994, 0.77150714, -0.25766596, -0.4688865, -0.34428248, 0.03341921, 0.007719914, 0.14443874, 0
110, 216700661, 0.7714639, -0.25776768, -0.4687938, -0.3444295, 0.014657086, -0.0014852436, 0.11151314, 0
111, 216717328, 0.7716298, -0.2575703, -0.46886522, -0.3441085, 0.0030842554, -3.1850598E-4, 0.09836197, 0
112, 216733995, 0.77176857, -0.25740045, -0.46893725, -0.3438256, -1.13991606E-4, 0.020829396, 0.11241627, 0
113, 216750662, 0.77182716, -0.25734314, -0.46893644, -0.34373814, -0.013482525, -0.006451925, 0.09757137, 0
114, 216767329, 0.77182513, -0.25736415, -0.4688965, -0.3437815, 3.5315048E-4, 0.0062259533, 0.101667404, 0
115, 216783996, 0.7718199, -0.25737572, -0.46886295, -0.34383053, 1.04157036E-4, 0.0067445035, 0.117835045, 0
116, 216800663, 0.771994, -0.2571534, -0.46894422, -0.34349504, 0.0155285625, 0.009189065, 0.10992432, 0
117, 216817330, 0.772001, -0.25715947, -0.4689048, -0.34352842, 0.020488761, 0.014205142, 0.114377975, 0
118, 216833997, 0.7720455, -0.25711432, -0.46888766, -0.3434858, 0.0017758104, -0.011349988, 0.09170151, 0
119, 216850664, 0.7720283, -0.25713027, -0.4688522, -0.34356067, -0.0041857273, 0.013588694, 0.110897064, 0
120, 216867331, 0.7720496, -0.25709546, -0.4688419, -0.34355307, -0.005949468, 0.015782474, 0.1219511, 0
121, 216883998, 0.7720765, -0.25707197, -0.46882302, -0.34353602, -0.011227726, 0.012214983, 0.1276226, 0
122, 216900665, 0.7721124, -0.25702718, -0.4688424, -0.34346232, 0.0061345366, 0.006581339, 0.09762573, 0
123, 216917332, 0.7721202, -0.25702327, -0.46886784, -0.34341317, 3.2990513E-4, 0.016531466, 0.110198975, 0
124, 216933999, 0.7721739, -0.2569577, -0.46890423, -0.34329185, 0.016192842, 0.012508232, 0.1287632, 0
125, 216950666, 0.7721178, -0.25705332, -0.46884295, -0.34343007, -0.009736001, -0.012724145, 0.095749855, 0
126, 216967333, 0.7721237, -0.25706434, -0.46883366, -0.34342086, -0.03339127, 0.0018037496, 0.09137058, 0
127, 216984000, 0.7722202, -0.25693032, -0.46889746, -0.34321702, -0.033178486, 0.0035413392, 0.1108551, 0
128, 217000667, 0.7722916, -0.2568107, -0.46896902, -0.34304807, -0.018575938, 0.0056425845, 0.105436325, 0
129, 217017334, 0.7723379, -0.2567454, -0.46901384, -0.3429314, 0.019857338, -0.023161083, 0.10459709, 0
130, 217034001, 0.77237827, -0.25670883, -0.46902946, -0.34284645, 0.014685248, 0.009363181, 0.10161018, 0
131, 217050668, 0.7723706, -0.25671455, -0.4690526, -0.34282783, -0.021764798, 0.020742897, 0.09439945, 0
132, 217067335, 0.7723633, -0.25671482, -0.46908054, -0.3428059, -0.013160219, 0.008719464, 0.11068535, 0
133, 217084002, 0.77237225, -0.2566958, -0.46909067, -0.3427862, -0.0024266802, 0.01419352, 0.11544895, 0
134, 217100669, 0.77241486, -0.25662932, -0.4691488, -0.34266052, -4.246746E-5, -0.0065534, 0.09480286, 0
135, 217117336, 0.77239805, -0.25664937, -0.46914473, -0.34268886, -0.0022646333, -0.0145965135, 0.10054493, 0
136, 217134003, 0.77232414, -0.25675124, -0.46908203, -0.34286484, 0.010724375, 0.0077521, 0.11011791, 0
137, 217150670, 0.7720741, -0.25708184, -0.46890646, -0.34341988, -0.0011785838, 0.004025468, 0.10253048, 0
138, 217167337, 0.77204543, -0.2571165, -0.46889403, -0.34347528, 0.010662909, 0.0029561825, 0.102760315, 0
139, 217184004, 0.77200246, -0.25718465, -0.46884358, -0.3435897, 0.0039036537, -0.0056454903, 0.09886646, 0
140, 217200671, 0.77202445, -0.25719717, -0.468801, -0.34358937, 0.005685052, -0.008099662, 0.13667965, 0
141, 217217338, 0.77195877, -0.2572764, -0.46876034, -0.34373286, -0.031984705, 0.021981157, 0.06944275, 0
142, 217234005, 0.77177346, -0.2574956, -0.46866822, -0.3441101, -0.009863851, 0.006413928, 0.11172962, 0
143, 217250672, 0.77176464, -0.25746834, -0.46871832, -0.344082, -0.0069304663, -0.009670735, 0.10252094, 0
144, 217267339, 0.7717673, -0.25740805, -0.46878463, -0.3440312, 0.025419235, -0.011547573, 0.11217117, 0
145, 217284006, 0.7717426, -0.25741467, -0.46879044, -0.34407383, 0.008680573, -0.01600241, 0.122057915, 0
146, 217300673, 0.77174646, -0.2574197, -0.46876967, -0.34408972, 0.0048734765, -0.0010037967, 0.11287308, 0
147, 217317340, 0.77170515, -0.25743747, -0.46879, -0.3441412, -0.010287854, 0.0020306152, 0.079027176, 0
148, 217334007, 0.7715709, -0.25759503, -0.46874613, -0.344384, 0.007854469, -0.001775587, 0.1213665, 0
149, 217350674, 0.77157634, -0.2575852, -0.46875164, -0.34437183, 0.013092718, -0.003124711, 0.09389496, 0
150, 217367341, 0.77155, -0.25764754, -0.4686969, -0.34445852, 0.01943937, -0.0014264596, 0.113204956, 0
151, 217384008, 0.7715546, -0.25767928, -0.46866232, -0.34447172, 0.0031215819, -8.0665824E-4, 0.11246872, 0
152, 217400675, 0.7715184, -0.2577315, -0.46864453, -0.3445375, -0.023906276, 0.014794546, 0.08945942, 0
153, 217417342, 0.7716169, -0.25760156, -0.46872064, -0.34431064, 0.005057651, -0.009455939, 0.10087013, 0
154, 217434009, 0.77158636, -0.25765124, -0.46868566, -0.34438962, 0.017382827, 0.0065994435, 0.10808182, 0
155, 217450676, 0.7715914, -0.2576423, -0.46868843, -0.34438118, -0.0063886708, 0.009657324, 0.114715576, 0
156, 217467343, 0.77164143, -0.2575819, -0.4687239, -0.34426624, -0.017786713, -0.001819172, 0.1085825, 0
157, 217484010, 0.77163446, -0.25759235, -0.46873733, -0.34425566, -0.0075998874, 0.013212298, 0.111242294, 0
158, 217500677, 0.77163243, -0.2576054, -0.4687442, -0.34424105, -0.005152644, -0.0058415113, 0.12128067, 0
159, 217517344, 0.7716421, -0.25760403, -0.46873504, -0.34423286, -0.010337027, -0.016972233, 0.105296135, 0
160, 217534011, 0.77155054, -0.25774506, -0.46865034, -0.3444477, -0.004587156, -0.0018864493, 0.1093626, 0
161, 217550678, 0.77156246, -0.25774127, -0.46864116, -0.34443644, 0.016033031, -0.0021957913, 0.11583519, 0
162, 217567345, 0.7716654, -0.25763103, -0.46866715, -0.34425288, -0.0036859522, -0.0070699384, 0.10327625, 0
163, 217584012, 0.771757, -0.25749382, -0.46874514, -0.34404388, -0.01136094, 0.012857582, 0.11294556, 0
164, 217600679, 0.77177674, -0.2574645, -0.46876726, -0.34399137, 0.0059318105, 0.001812243, 0.11673832, 0
165, 217617346, 0.77177554, -0.2574708, -0.46876213, -0.34399623, 0.009674982, 0.0030867138, 0.11608982, 0
166, 217634013, 0.77200836, -0.25717512, -0.46889073, -0.34351912, -0.0016969104, -0.018182779, 0.109908104, 0
167, 217650680, 0.77219546, -0.2569121, -0.4690266, -0.3431101, -0.014003534, 0.016718546, 0.083717346, 0
168, 217667347, 0.7722498, -0.25680876, -0.4691107, -0.34294972, -0.003914606, 0.018933559, 0.114972115, 0
169, 217684014, 0.772272, -0.25678596, -0.46913007, -0.34289077, 0.007766628, -0.0085703805, 0.1168623, 0
170, 217700681, 0.7722816, -0.25679076, -0.46913728, -0.34285554, -0.0037369132, 0.00961061, 0.10725403, 0
171, 217717348, 0.77228147, -0.2568032, -0.469148, -0.3428318, -0.0087154405, 0.016803928, 0.11049652, 0
172, 217734015, 0.77230525, -0.2567599, -0.46919072, -0.34275216, -0.01277913, 0.0028594013, 0.11060715, 0
173, 217750682, 0.7722102, -0.25686046, -0.4691593, -0.34293398, -0.003390915, -0.003698469, 0.09423351, 0
174, 217767349, 0.7722299, -0.25682107, -0.46917832, -0.34289297, 0.028839653, -0.005524346, 0.10391426, 0
175, 217784016, 0.77219635, -0.256877, -0.46911094, -0.34301892, -0.0015129593, -0.011197999, 0.0978117, 0
176, 217800683, 0.77210915, -0.2570002, -0.46902004, -0.34324726, -0.041754454, -0.002683273, 0.09566498, 0
177, 217817350, 0.7720206, -0.2570802, -0.46901086, -0.34339917, -0.03544379, 0.0048647593, 0.0910902, 0
178, 217834017, 0.77198154, -0.25708833, -0.4690773, -0.34339023, -0.0021278434, 0.0023864477, 0.123306274, 0
179, 217850684, 0.77189875, -0.2571626, -0.4690887, -0.3435048, 0.023003506, -0.0067306454, 0.09930992, 0
180, 217867351, 0.7718871, -0.25716287, -0.46909493, -0.34352222, 0.03326074, -0.012823832, 0.13065147, 0
181, 217884018, 0.77190244, -0.2571466, -0.46906808, -0.34353656, 0.014649486, -0.012451907, 0.110619545, 0
182, 217900685, 0.77193314, -0.2570999, -0.46906948, -0.34350067, -0.006631853, 0.009215439, 0.10499382, 0
183, 217917352, 0.7719712, -0.2570379, -0.46909168, -0.34343112, -0.011546008, 0.011753205, 0.11596775, 0
184, 217934019, 0.7719455, -0.2570547, -0.46910483, -0.34345856, -0.020451436, 0.026349943, 0.09450436, 0
185, 217950686, 0.7719341, -0.25700927, -0.46920052, -0.34338742, -0.032344785, 0.027205102, 0.092871666, 0
186, 217967353, 0.7719761, -0.25686833, -0.46937773, -0.3431563, 0.0059061064, -0.0078052958, 0.11319065, 0
187, 217984020, 0.77200156, -0.25674832, -0.4695319, -0.34297788, 0.011863174, -0.029918326, 0.11358452, 0
188, 218000687, 0.7719519, -0.25674692, -0.46959028, -0.34301078, -0.007959967, -0.017880142, 0.11842728, 0
189, 218017354, 0.7719389, -0.25670603, -0.4696462, -0.34299406, 8.6276E-4, -0.013906529, 0.109173775, 0
190, 218034021, 0.771929, -0.25666007, -0.46969187, -0.34298807, 0.024509983, -0.012745603, 0.099864006, 0
191, 218050688, 0.77204394, -0.25645754, -0.46982569, -0.34269768, 0.04253228, 0.008775342, 0.09834385, 0
192, 218067355, 0.7721018, -0.2563558, -0.4699115, -0.3425253, 0.021620855, 3.7371367E-4, 0.11586189, 0
193, 218084022, 0.7721123, -0.25635117, -0.4699212, -0.3424919, 0.013733307, 0.016871652, 0.14002609, 0
194, 218100689, 0.7721022, -0.2564006, -0.46986836, -0.3425503, -0.018043978, -0.0018880139, 0.097296715, 0
195, 218117356, 0.7721567, -0.2563142, -0.46992308, -0.3424171, -0.0035247994, -0.0042429464, 0.1061697, 0
196, 218134023, 0.77211726, -0.2563708, -0.4698849, -0.3425163, 0.0137418, -0.017797666, 0.11868191, 0
197, 218150690, 0.7722026, -0.25624624, -0.46993694, -0.34234527, -0.013996605, -0.013440728, 0.10369587, 0
198, 218167357, 0.77214533, -0.25629216, -0.46992946, -0.34245023, -0.01822547, -7.9950585E-4, 0.0966692, 0
199, 218184024, 0.7722041, -0.25617334, -0.4700272, -0.34227237, 0.005904542, 0.002951265, 0.12506199, 0
200, 218200691, 0.77224094, -0.25611544, -0.47007892, -0.34216166, -0.006376825, 0.008473599, 0.11596775, 0
201, 218217358, 0.77215666, -0.25621015, -0.4700576, -0.34231022, -0.012030138, 9.9955E-4, 0.08939266, 0
202, 218234025, 0.77206117, -0.25633398, -0.46999022, -0.34252554, -0.0021522061, -0.0057760216, 0.11131668, 0
203, 218250692, 0.7720982, -0.25627738, -0.47003043, -0.34242925, -0.010857812, 6.7590317E-4, 0.12036133, 0
204, 218267359, 0.77201104, -0.25638226, -0.4699969, -0.34259313, -0.02767068, 0.00803395, 0.121011734, 0
205, 218284026, 0.7720662, -0.2563091, -0.47005218, -0.3424478, 0.008130508, -0.006819604, 0.09580898, 0
206, 218300693, 0.7720847, -0.25626892, -0.4700917, -0.34238183, 0.015320919, -0.0028198394, 0.0979023, 0
207, 218317360, 0.77208036, -0.2562465, -0.47011065, -0.3423823, 0.0051544323, -0.00908759, 0.10643673, 0
208, 218334027, 0.7721948, -0.25608113, -0.47017318, -0.34216222, 0.020915002, -0.0049253316, 0.11698151, 0
209, 218350694, 0.7721934, -0.25610098, -0.47010633, -0.34224257, 0.013524098, 0.00850668, 0.101875305, 0
210, 218367361, 0.7721919, -0.25613114, -0.47005457, -0.34229416, -0.01429723, 0.019038163, 0.11850166, 0
211, 218384028, 0.7723547, -0.25594118, -0.47013152, -0.34196314, -0.016339468, -0.009738906, 0.10064983, 0
212, 218400695, 0.7722997, -0.25603786, -0.47005463, -0.34212068, 2.4742883E-4, -0.002821404, 0.118237495, 0
213, 218417362, 0.7722502, -0.25612, -0.4699923, -0.34225643, -0.004544242, -0.008065465, 0.098893166, 0
214, 218434029, 0.77235717, -0.25597233, -0.4700625, -0.3420291, -0.026461251, -0.008119555, 0.10039711, 0
215, 218450696, 0.77235556, -0.25596735, -0.47004753, -0.3420569, -0.0034908254, -0.00663677, 0.11296368, 0
216, 218467363, 0.772239, -0.25614825, -0.46990183, -0.3423849, 0.0033086622, -0.017832758, 0.11960983, 0
217, 218484030, 0.7722551, -0.2561632, -0.46983647, -0.34242702, 0.004990821, 0.003024801, 0.096484184, 0
218, 218500697, 0.77223325, -0.2562243, -0.469762, -0.3425326, 0.0046774554, 0.011438276, 0.09573746, 0
219, 218517364, 0.7724767, -0.2558961, -0.46993446, -0.341992, -0.017309066, 0.026735948, 0.102996826, 0
220, 218534031, 0.7724804, -0.2558935, -0.46996963, -0.34193715, -0.023371855, 0.006587374, 0.10091019, 0
221, 218550698, 0.7724883, -0.2559073, -0.46998775, -0.34188405, 9.836805E-4, -0.024043512, 0.10433483, 0
222, 218567365, 0.77253515, -0.255913, -0.46994773, -0.34182888, 0.013857356, -0.01582427, 0.1335144, 0
223, 218584032, 0.7725551, -0.2559889, -0.46983078, -0.34188813, -0.022081962, 4.99775E-4, 0.1113081, 0
224, 218600699, 0.7726389, -0.2559293, -0.46982914, -0.34174564, 0.011605463, -0.013931339, 0.087667465, 0
225, 218617366, 0.7726571, -0.25593266, -0.46980378, -0.3417368, 0.02288795, 0.011475379, 0.12852383, 0
226, 218634033, 0.7726547, -0.25600606, -0.4697018, -0.34182698, 0.007865197, 0.0038464344, 0.13528633, 0
227, 218650700, 0.77274746, -0.2559271, -0.46972752, -0.34164116, -0.017227707, 0.011415924, 0.07499027, 0
228, 218667367, 0.772786, -0.25593472, -0.46969995, -0.34158605, -0.006214331, -9.919505E-4, 0.108044624, 0
229, 218684034, 0.77278614, -0.25594425, -0.46967933, -0.341607, -0.017391767, -0.024996795, 0.111935616, 0
230, 218700701, 0.77275276, -0.25599203, -0.4696229, -0.34172443, -0.004544242, -0.016955469, 0.11815739, 0
231, 218717368, 0.7727565, -0.25598374, -0.46959773, -0.34175658, 0.0021298549, -0.0065632346, 0.10873127, 0
232, 218734035, 0.7727312, -0.2559916, -0.4695887, -0.34182078, -0.02850863, 8.8757E-4, 0.10230446, 0
233, 218750702, 0.77259684, -0.2561104, -0.46956164, -0.34207264, -0.0080976505, -0.010562105, 0.089401245, 0
234, 218767369, 0.7725883, -0.2560485, -0.46962166, -0.34205547, 0.008406099, -0.0015185471, 0.09963703, 0
235, 218784036, 0.77257913, -0.25602075, -0.4696465, -0.3420632, 0.036356617, -0.0015833657, 0.120661736, 0
236, 218800703, 0.7725804, -0.2560331, -0.46961462, -0.34209478, 0.01708019, 0.024739085, 0.108882904, 0
237, 218817370, 0.7725952, -0.256019, -0.46961936, -0.34206522, -0.026053788, 0.015454804, 0.09996128, 0
238, 218834037, 0.7727442, -0.25581053, -0.46974504, -0.34171224, -0.0317375, -0.010908326, 0.105181694, 0
239, 218850704, 0.7727324, -0.2558273, -0.4697561, -0.34171057, -0.005981207, -0.009671853, 0.09971523, 0
240, 218867371, 0.77278906, -0.2557384, -0.46981043, -0.34157428, 0.0045247963, -0.010014721, 0.10614681, 0
241, 218884038, 0.7728283, -0.2556883, -0.46982417, -0.34150428, 0.003421313, -0.004489705, 0.09376621, 0
242, 218900705, 0.7728591, -0.25566617, -0.46982273, -0.34145328, -0.017140538, 0.006463771, 0.10998535, 0
243, 218917372, 0.7728697, -0.25566992, -0.46981195, -0.34144148, 0.006213884, -0.010193308, 0.09066105, 0
244, 218934039, 0.7728615, -0.25568706, -0.46979702, -0.34146738, -0.003089396, 0.0052170157, 0.09105396, 0
245, 218950706, 0.7728627, -0.25566113, -0.46982014, -0.34145254, -0.0061828154, -0.0068882224, 0.098979, 0
246, 218967373, 0.77281624, -0.25569424, -0.46983036, -0.34151858, -0.009663583, -1.8573926E-4, 0.09982109, 0
247, 218984040, 0.7727461, -0.25575498, -0.46982324, -0.34164175, -0.01611573, 0.013665135, 0.0976429, 0
248, 219000707, 0.77279484, -0.2556443, -0.469904, -0.34150344, -0.02497936, -0.012712076, 0.12799072, 0
249, 219017374, 0.772827, -0.25556704, -0.46996057, -0.34141013, 0.0077013625, -0.012758567, 0.10912609, 0
250, 219034041, 0.77277255, -0.2556111, -0.46995935, -0.34150195, 0.028999688, 0.007637885, 0.08724022, 0
251, 219050708, 0.77276784, -0.2556011, -0.46998793, -0.34148103, 0.033943124, 0.009664253, 0.0936718, 0
252, 219067375, 0.7728034, -0.25553522, -0.4700465, -0.34136933, -0.025408283, 0.006386212, 0.09913254, 0
253, 219084042, 0.772749, -0.25555918, -0.47008136, -0.34142643, -0.02256475, -0.0024286918, 0.11143494, 0
254, 219100709, 0.7726761, -0.2556274, -0.47007146, -0.34155387, 0.0038057552, -0.0078090956, 0.10489559, 0
255, 219117376, 0.7726997, -0.25558683, -0.47008383, -0.3415138, 0.050032258, -0.011173859, 0.13383484, 0
256, 219134043, 0.77286327, -0.2554026, -0.4701349, -0.34121114, 0.04721376, 0.008896709, 0.11166191, 0
257, 219150710, 0.7728331, -0.25547683, -0.47007692, -0.3413037, 0.011273323, 0.018337673, 0.09370899, 0
258, 219167377, 0.7729102, -0.25539193, -0.47010854, -0.34114915, -0.014010239, -0.0041716457, 0.10407162, 0
259, 219184044, 0.77285767, -0.25549442, -0.4700301, -0.34129944, -0.042340953, -0.003157791, 0.09093189, 0
260, 219200711, 0.7729954, -0.25529918, -0.47013584, -0.3409881, -0.036462788, 0.00606033, 0.09064484, 0
261, 219217378, 0.77300406, -0.25527558, -0.4701589, -0.34095424, 3.2342324E-4, -3.900301E-4, 0.104413986, 0
262, 219234045, 0.7731052, -0.25513592, -0.47023484, -0.34072495, 0.04422271, -0.0030804556, 0.13021374, 0
263, 219250712, 0.7733892, -0.25479433, -0.4703669, -0.34015295, 0.06126088, -0.0021365604, 0.12895107, 0
264, 219267379, 0.77343595, -0.25481188, -0.47027683, -0.3401582, 0.011613957, 0.019022517, 0.10020542, 0
265, 219284046, 0.77336866, -0.25494888, -0.47017118, -0.3403547, -0.059935894, 0.03476342, 0.07953739, 0
266, 219300713, 0.77350116, -0.2547106, -0.47035256, -0.33998078, -0.07602346, 0.0028996335, 0.08347988, 0
267, 219317380, 0.7736137, -0.25447303, -0.47056162, -0.33961317, 0.006746068, -0.01649682, 0.1082592, 0
268, 219334047, 0.7735749, -0.25450578, -0.47055548, -0.3396855, 0.06366476, -0.0043745954, 0.13711166, 0
269, 219350714, 0.77378255, -0.25428045, -0.4706275, -0.33928114, 0.06097545, 0.006927784, 0.124679565, 0
270, 219367381, 0.77402973, -0.2540046, -0.47071683, -0.33879974, -0.02493153, -0.012660221, 0.09553623, 0
271, 219384048, 0.7740282, -0.2540323, -0.47068474, -0.33882704, -0.056228485, 0.0059903706, 0.088695526, 0
272, 219400715, 0.7739622, -0.25409603, -0.47069627, -0.3389142, -0.03487942, 0.010197108, 0.081362724, 0
273, 219417382, 0.7740594, -0.25390875, -0.47086835, -0.33859357, 0.008628941, -0.011106359, 0.121507645, 0
274, 219434049, 0.77410966, -0.2538627, -0.470893, -0.33847845, 0.039213784, -0.014588243, 0.13773537, 0
275, 219450716, 0.77402455, -0.25404823, -0.47076347, -0.3387144, 0.0028672242, -0.008130284, 0.12119293, 0
276, 219467383, 0.7741674, -0.25388253, -0.4708393, -0.33840644, -0.033596456, -1.8372765E-4, 0.086958885, 0
277, 219484050, 0.7741548, -0.25388303, -0.470843, -0.33842987, -0.046941742, -0.0029443363, 0.09574795, 0
278, 219500717, 0.77419746, -0.25377312, -0.47094452, -0.33827344, -0.011469344, -0.008521431, 0.104932785, 0
279, 219517384, 0.77420324, -0.2537643, -0.470961, -0.3382439, 0.027377656, -0.02435196, 0.11338711, 0
280, 219534051, 0.7743324, -0.25358325, -0.4710463, -0.337965, -0.0020965515, -0.0036466138, 0.10332775, 0
281, 219550718, 0.77423245, -0.25370127, -0.47099143, -0.338182, -0.020856664, 0.014417927, 0.098109245, 0
282, 219567385, 0.77402943, -0.25395724, -0.47086596, -0.33862892, 0.0021832746, 0.0038690092, 0.112773895, 0
283, 219584052, 0.77396786, -0.25400263, -0.47086275, -0.33874014, 0.019377902, 0.004138119, 0.1230526, 0
284, 219600719, 0.7740416, -0.25389674, -0.4708947, -0.33860663, 0.036059346, -6.316476E-4, 0.12528706, 0
285, 219617386, 0.77397215, -0.2540273, -0.47077873, -0.3388284, 0.015615062, -0.003794356, 0.113526344, 0
286, 219634053, 0.7737873, -0.254269, -0.47065094, -0.33924663, -0.032865793, -0.0018602983, 0.08920956, 0
287, 219650720, 0.7737519, -0.25429553, -0.47065684, -0.33929902, -0.0074481224, -0.017562531, 0.114414215, 0
288, 219667387, 0.773701, -0.25435415, -0.47063386, -0.33940306, -0.017964406, -0.0014266832, 0.11365223, 0
289, 219684054, 0.7736391, -0.25440818, -0.47063303, -0.339505, -0.0035163057, -0.004263733, 0.100115776, 0
290, 219700721, 0.77362657, -0.25440565, -0.47063163, -0.33953738, 0.011752535, -0.024603188, 0.10995102, 0
291, 219717388, 0.77354985, -0.25450525, -0.47056675, -0.3397275, 0.005462433, 0.006230647, 0.092199326, 0
292, 219734055, 0.7734094, -0.2546808, -0.4704821, -0.3400325, -0.025546413, 0.02442393, 0.09999752, 0
293, 219750722, 0.77335703, -0.2547004, -0.4705209, -0.34008333, -0.026216952, -0.015209386, 0.117533684, 0
294, 219767389, 0.7733516, -0.2546734, -0.47056633, -0.34005314, -0.011701797, -0.018991224, 0.12006378, 0
295, 219784056, 0.77328545, -0.25473773, -0.47055042, -0.3401775, -0.0063915765, -0.02017428, 0.10056496, 0
296, 219800723, 0.7732719, -0.25473082, -0.47058114, -0.34017077, -0.0015674963, 0.0064787464, 0.106217384, 0
297, 219817390, 0.7732613, -0.25471753, -0.4706229, -0.3401472, 0.0023667787, 0.0012132283, 0.10760689, 0
298, 219834057, 0.7732563, -0.2547009, -0.47067142, -0.3401038, 0.012771307, 0.028343678, 0.10319328, 0
299, 219850724, 0.7732986, -0.2546155, -0.47076762, -0.33993843, 0.0021343252, -0.011286734, 0.10687351, 0
300, 219867391, 0.7733077, -0.2545599, -0.47083858, -0.33986107, -0.0056892987, 0.010057859, 0.08392906, 0
301, 219884058, 0.77321714, -0.25463313, -0.47083476, -0.34001768, 0.014551364, -0.009435823, 0.116853714, 0
302, 219900725, 0.77322346, -0.2545775, -0.4709155, -0.33993316, -0.014500626, 0.007845081, 0.12602806, 0
303, 219917392, 0.77326757, -0.2544586, -0.4710778, -0.33969703, -0.027485387, 0.04555887, 0.10067272, 0
304, 219934059, 0.77318054, -0.25447926, -0.4712007, -0.33970913, -0.01950687, -0.04822717, 0.09450817, 0
305, 219950726, 0.7731729, -0.25443012, -0.47128025, -0.3396531, 0.043682925, -0.0052185804, 0.12039375, 0
306, 219967393, 0.7731504, -0.25441676, -0.4713145, -0.33966637, 0.032322656, -0.0021622644, 0.09046936, 0
307, 219984060, 0.7731236, -0.25445244, -0.47129455, -0.33972824, 0.035941105, -3.7550175E-4, 0.1286974, 0
308, 220000727, 0.77309036, -0.25453648, -0.47122043, -0.33984378, 0.0017903388, 0.015700668, 0.0893774, 0
309, 220017394, 0.77305233, -0.25458416, -0.47121143, -0.33990705, -0.026958792, -2.8699063E-4, 0.089832306, 0
310, 220034061, 0.77303565, -0.2545989, -0.471229, -0.33990967, -0.002845767, 0.0014760796, 0.112174034, 0
311, 220050728, 0.7731479, -0.25444844, -0.47131684, -0.3396454, -0.0146284755, -0.011271087, 0.109332085, 0
312, 220067395, 0.7732796, -0.25427628, -0.47142115, -0.3393293, 0.0015332989, 0.017320465, 0.12487221, 0
313, 220084062, 0.7733306, -0.25423363, -0.47143686, -0.33922306, 0.0044177338, -0.004510715, 0.10457134, 0
314, 220100729, 0.77334017, -0.25423902, -0.47144505, -0.33918622, -0.012560087, -0.018891763, 0.083758354, 0
315, 220117396, 0.7733727, -0.25420538, -0.47144565, -0.33913636, -0.019066103, -0.005857604, 0.11490536, 0
316, 220134063, 0.7733609, -0.25424132, -0.47139773, -0.33920297, 0.0121220015, -0.0067838416, 0.117464066, 0
317, 220150730, 0.77329785, -0.2543608, -0.471288, -0.33940956, -0.009916152, 0.00869376, 0.11255264, 0
318, 220167397, 0.7733523, -0.25431362, -0.47128108, -0.33933046, -0.011104124, 9.009807E-4, 0.12297058, 0
319, 220184064, 0.773354, -0.25432196, -0.47125715, -0.33935377, 0.0065536234, -0.0031251581, 0.103307724, 0
320, 220200731, 0.7733173, -0.25435457, -0.47124517, -0.3394294, -0.0074494635, 1.4371883E-4, 0.101392746, 0
321, 220217398, 0.7733616, -0.25424194, -0.471359, -0.3392546, -4.747415E-4, -0.0013424188, 0.10884285, 0
322, 220234065, 0.77340394, -0.2541574, -0.47143814, -0.33911163, 0.022045977, -0.005101683, 0.11048889, 0
323, 220250732, 0.77333814, -0.25422162, -0.47142494, -0.33923176, 2.773796E-4, -0.0036088403, 0.091254234, 0
324, 220267399, 0.7732939, -0.2542616, -0.4714, -0.3393372, -0.0022076375, 6.7210343E-4, 0.11072254, 0
325, 220284066, 0.7731659, -0.25444108, -0.4713003, -0.33963236, -0.017814653, 0.0118578095, 0.09066105, 0
326, 220300733, 0.7730689, -0.2545593, -0.47124562, -0.33984038, -0.030333837, -0.0045406655, 0.11223221, 0
327, 220317400, 0.77299076, -0.25463372, -0.47121522, -0.3400046, -0.01784751, -0.01225745, 0.091812134, 0
328, 220334067, 0.7730815, -0.2544644, -0.47133684, -0.33975676, 0.005579107, 0.0064525953, 0.10051823, 0
329, 220350734, 0.77300483, -0.25452316, -0.47134608, -0.3398744, 0.010395587, -0.021159748, 0.105187416, 0
330, 220367401, 0.7730336, -0.25440603, -0.47145623, -0.33974344, -0.007818259, 0.0038935957, 0.09870911, 0
331, 220384068, 0.77295524, -0.25443292, -0.47150806, -0.3398297, 0.011921734, 0.018621534, 0.11172676, 0
332, 220400735, 0.7728782, -0.25450507, -0.47149304, -0.33997187, 0.026954545, -0.016800575, 0.1278162, 0
333, 220417402, 0.77290034, -0.254453, -0.47153246, -0.3399058, -0.008957952, -0.004297707, 0.1082325, 0
334, 220434069, 0.77293986, -0.25438717, -0.4715763, -0.3398044, 0.01108736, -0.0025985616, 0.115839005, 0
335, 220450736, 0.7729835, -0.2543111, -0.4716206, -0.33970076, -0.028155256, -1.6428203E-4, 0.08063507, 0
336, 220467403, 0.77289987, -0.25438216, -0.47162226, -0.33983544, -0.024154821, 0.006712541, 0.092271805, 0
337, 220484070, 0.77286386, -0.25437972, -0.47165123, -0.339879, 0.010474934, -0.02246931, 0.12745094, 0
338, 220500737, 0.77285975, -0.25438178, -0.47164962, -0.33988887, 0.010375248, -0.00268372, 0.12403011, 0
339, 220517404, 0.77285063, -0.25440514, -0.4716635, -0.33987287, 0.013611939, 0.027087089, 0.12040615, 0
340, 220534071, 0.7729305, -0.25432447, -0.47175467, -0.3396251, 0.00905071, -0.01900106, 0.11488438, 0
341, 220550738, 0.77300566, -0.2542979, -0.4717473, -0.33948365, 0.024305915, -0.001103707, 0.10742378, 0
342, 220567405, 0.7730408, -0.25427958, -0.47177225, -0.3393831, -0.043486904, 0.009946327, 0.093073845, 0
343, 220584072, 0.77301544, -0.2542979, -0.4718167, -0.33936515, -0.011536398, -0.012721016, 0.10896301, 0
344, 220600739, 0.77313316, -0.2541411, -0.4719808, -0.3389861, 0.029858202, 0.00862, 0.12976933, 0
345, 220617406, 0.77310747, -0.2544361, -0.47188225, -0.33896062, 0.099747576, 0.01537121, 0.20941925, 0
346, 220634073, 0.7731974, -0.2549211, -0.47158417, -0.33880603, 0.10773749, 0.0052152276, 0.1984663, 0
347, 220650740, 0.77338105, -0.2554225, -0.47119153, -0.33855563, 0.04605082, -0.019408748, 0.10033226, 0
348, 220667407, 0.7735342, -0.2562058, -0.47050625, -0.33856672, 0.12694977, -0.016170716, 0.19121265, 0
349, 220684074, 0.77380574, -0.25699666, -0.46972066, -0.3384376, 0.073817834, 0.036119692, 0.18721676, 0
350, 220700741, 0.7741432, -0.2581837, -0.4686283, -0.33827662, 0.17655355, 0.057278994, 0.36815453, 0
351, 220717408, 0.7746961, -0.25943696, -0.46719307, -0.33803758, 0.11315008, -0.077168964, 0.095339775, 0
352, 220734075, 0.775231, -0.26039273, -0.46591502, -0.3378401, -0.06678031, -0.08305674, -0.03139019, 0
353, 220750742, 0.7757725, -0.26112705, -0.464743, -0.3376444, -0.03661321, -0.05293502, 0.13391876, 0
354, 220767409, 0.7763113, -0.26200342, -0.46333343, -0.3376646, 0.008455048, -0.061382245, 0.12616539, 0
355, 220784076, 0.77697104, -0.26284504, -0.4619026, -0.33745316, 0.03276342, -0.043555524, 0.30363274, 0
356, 220800743, 0.7776489, -0.26374674, -0.46045282, -0.33716917, -0.034830023, -0.039493844, 0.31853104, 0
357, 220817410, 0.77809477, -0.2649356, -0.45911813, -0.33702904, 0.011730407, 0.030774605, 0.2527027, 0
358, 220834077, 0.77840877, -0.26586545, -0.45837405, -0.33658403, -0.28344303, 0.07591551, 0.16491795, 0
359, 220850744, 0.7778793, -0.26709488, -0.4584142, -0.3367798, -0.559672, 0.1013153, 0.12916946, 0
360, 220867411, 0.7767314, -0.26841062, -0.45923632, -0.33726287, -0.76636046, 0.16363898, 0.21965027, 0
361, 220884078, 0.774758, -0.26995048, -0.46117577, -0.33792594, -0.8693503, 0.2753275, 0.6813898, 0
362, 220900745, 0.7722392, -0.27176026, -0.4639791, -0.33840302, -0.76013, 0.2870662, 1.2041788, 0
363, 220917412, 0.7692496, -0.27422002, -0.46672025, -0.3394566, -0.3506869, 0.17457904, 1.7522774, 0
364, 220934079, 0.7664547, -0.27745497, -0.46881622, -0.34026107, -0.16293111, 0.13303693, 2.0327206, 0
365, 220950746, 0.76466334, -0.28106368, -0.46936136, -0.34057802, -0.058348056, -0.16118056, 2.3209124, 0
366, 220967413, 0.7642333, -0.2846898, -0.46792135, -0.3405127, 0.0790382, -0.28810284, 2.590948, 0
367, 220984080, 0.7653473, -0.2882415, -0.46424666, -0.3400521, 0.2089797, -0.24199234, 2.6500416, 0
368, 221000747, 0.76737756, -0.291653, -0.45912927, -0.33951563, -0.18317379, -0.6325783, 2.5341187, 0
369, 221017414, 0.7692584, -0.29521158, -0.4543287, -0.33864024, -0.15109208, -0.22939783, 1.9510403, 0
370, 221034081, 0.7706747, -0.29933122, -0.45019698, -0.3373192, -0.034998998, -0.12032999, 1.6898422, 0
371, 221050748, 0.77149403, -0.30393794, -0.44681212, -0.33582386, 0.09755268, -0.23261887, 1.7337742, 0
372, 221067415, 0.7723026, -0.30872807, -0.44336262, -0.3341639, 0.46386, -0.3769423, 1.8126926, 0
373, 221084082, 0.7737282, -0.3133449, -0.43912086, -0.3321637, 0.626341, -0.52434015, 1.738924, 0
374, 221100749, 0.7761475, -0.31752518, -0.43378273, -0.32955378, 0.734688, -0.5347355, 1.5784702, 0
375, 221117416, 0.77944815, -0.32117936, -0.42758098, -0.32631147, 0.70699495, -0.4240557, 1.2331295, 0
376, 221134083, 0.7830563, -0.32463476, -0.42118046, -0.3225562, 0.7358661, -0.2316428, 0.85266113, 0
377, 221150750, 0.78665483, -0.32825914, -0.41480815, -0.3183621, 0.86450857, -0.13268936, 0.46173954, 0
378, 221167417, 0.79005754, -0.33216405, -0.40863267, -0.31384027, 0.9118292, -0.16658242, 0.24793339, 0
379, 221184084, 0.79328305, -0.33613703, -0.40260568, -0.30922908, 0.9762208, -0.22514638, 0.15422249, 0
380, 221200751, 0.7965531, -0.3398555, -0.39654586, -0.30455393, 1.0190494, -0.31480795, 0.1141243, 0
381, 221217418, 0.8000079, -0.34302384, -0.39034024, -0.29992813, 0.98748916, -0.3389516, 0.08364105, 0
382, 221234085, 0.8037418, -0.34568596, -0.3838532, -0.29522365, 0.9247985, -0.26159486, -0.08176708, 0
383, 221250752, 0.80763453, -0.3480102, -0.37743193, -0.29010424, 0.8055472, -0.12243883, -0.27346897, 0
384, 221267419, 0.81156117, -0.35025045, -0.37110323, -0.28456208, 0.72152776, 0.0013578412, -0.42300415, 0
385, 221284086, 0.8153522, -0.35247707, -0.3650548, -0.27873975, 0.6902342, 0.03519703, -0.43655968, 0
386, 221300753, 0.81911665, -0.35456014, -0.35902882, -0.2728252, 0.6518525, 0.0651947, -0.46243286, 0
387, 221317420, 0.82262856, -0.3564691, -0.35340223, -0.26705605, 0.41745648, 0.111461215, -0.58628845, 0
388, 221334087, 0.82573074, -0.35834667, -0.34835038, -0.26154986, 0.30778092, 0.16453527, -0.6568117, 0
389, 221350754, 0.82841134, -0.36024967, -0.34395346, -0.25622436, 0.2974052, 0.22355162, -0.67487144, 0
390, 221367421, 0.83080405, -0.36220276, -0.34004074, -0.25089076, 0.3212583, 0.20386952, -0.6812954, 0
391, 221384088, 0.83320004, -0.36418283, -0.3359722, -0.24550208, 0.4014704, 0.10464966, -0.5763569, 0
392, 221400755, 0.83581865, -0.36609188, -0.33138177, -0.23993763, 0.33060494, 0.022211824, -0.6451349, 0
393, 221417422, 0.8385808, -0.36790115, -0.32619596, -0.23457858, 0.13858943, 0.032683406, -0.81486607, 0
394, 221434089, 0.84118956, -0.36943433, -0.32155132, -0.22917922, -0.1494544, 0.044541437, -0.8871155, 0
395, 221450756, 0.84336495, -0.37083086, -0.31800482, -0.22381468, -0.24791275, 0.09819483, -0.8768072, 0
396, 221467423, 0.8451318, -0.37245616, -0.31501582, -0.2186175, -0.0036088403, 0.15558402, -0.82630634, 0
397, 221484090, 0.8466648, -0.37441966, -0.31200427, -0.21359384, 0.28600875, 0.21095353, -0.656867, 0
398, 221500757, 0.8480505, -0.37697986, -0.30856523, -0.20852844, 0.37890834, 0.3239798, -0.5277357, 0
399, 221517424, 0.8491394, -0.38012207, -0.305178, -0.20331213, 0.15725298, 0.35440013, -0.46532536, 0
400, 221534091, 0.8498999, -0.38357455, -0.302056, -0.19825085, 0.07396558, 0.21165492, -0.26695824, 0
401, 221550758, 0.8506478, -0.38666612, -0.29929864, -0.19315252, -0.03480879, -0.03151756, -0.13177586, 0
402, 221567425, 0.85169965, -0.38912225, -0.29637522, -0.18802555, 0.07918528, -0.04151485, -0.088912964, 0
403, 221584092, 0.8531199, -0.39121953, -0.29271927, -0.182891, 0.22214907, 0.030560479, -0.20669079, 0
404, 221600759, 0.8548882, -0.3931701, -0.28804982, -0.17779456, 0.12965964, 0.09068882, -0.3274746, 0
405, 221617426, 0.8567249, -0.39494327, -0.28293815, -0.17317198, -0.2900465, 0.03476476, -0.37747955, 0
406, 221634093, 0.85836273, -0.3964043, -0.27836612, -0.16908358, -0.6635257, 0.08427355, -0.5051966, 0
407, 221650760, 0.8596009, -0.39784333, -0.27469528, -0.1653777, -0.6243302, 0.13607626, -0.5485716, 0
408, 221667427, 0.86051387, -0.3993088, -0.27172798, -0.16196465, -0.579085, 0.114825755, -0.3761921, 0
409, 221684094, 0.86115104, -0.40075636, -0.26944464, -0.15878652, -0.41567454, 0.09319238, -0.23046207, 0
410, 221700761, 0.8617265, -0.40236223, -0.2670462, -0.15562244, -0.15255408, 0.12518111, -0.18701744, 0
411, 221717428, 0.862408, -0.40406105, -0.2642005, -0.15226738, -0.06606551, 0.12634361, -0.15545177, 0
412, 221734095, 0.86324835, -0.40586755, -0.2606465, -0.1487861, 0.04849069, 0.1067746, -0.15729332, 0
413, 221750762, 0.86431026, -0.40759587, -0.256358, -0.14530689, -0.061169684, 0.01792954, -0.15275574, 0
414, 221767429, 0.8654505, -0.40912136, -0.25177652, -0.14221066, -0.22419669, -0.018903608, -0.17125988, 0
415, 221784096, 0.86656505, -0.41048786, -0.24724358, -0.13941213, -0.35994393, -0.0065732924, -0.26079464, 0
416, 221800763, 0.86758316, -0.4117361, -0.24294725, -0.1369289, -0.49289033, -4.2333355E-4, -0.30333805, 0
417, 221817430, 0.8683564, -0.4129056, -0.2394749, -0.13460287, -0.6718303, -0.005153985, -0.42868328, 0
418, 221834097, 0.8689258, -0.41393113, -0.23695934, -0.1322098, -0.726167, -0.021220768, -0.56897545, 0
419, 221850764, 0.86937845, -0.4149303, -0.23481502, -0.12990756, -0.5292828, -0.097219415, -0.5976658, 0
420, 221867431, 0.869752, -0.41611165, -0.23252611, -0.12772757, -0.47517624, -0.07028566, -0.7423868, 0
421, 221884098, 0.87015146, -0.41747278, -0.22973754, -0.12559332, -0.52160937, -0.1371652, -0.82501125, 0
422, 221900765, 0.870543, -0.4186998, -0.22688028, -0.12397955, -0.8108462, -0.22108449, -0.739419, 0
423, 221917432, 0.8708677, -0.4193598, -0.22485372, -0.123158425, -1.2919632, -0.28025106, -0.69011784, 0
424, 221934099, 0.871078, -0.41932753, -0.22412863, -0.1231018, -1.4537553, -0.25128177, -0.7383709, 0
425, 221950766, 0.8711394, -0.41880384, -0.22454926, -0.12368257, -1.3171337, -0.1597389, -0.828866, 0
426, 221967433, 0.87106764, -0.4182286, -0.22545528, -0.12448375, -1.0781326, -0.08417229, -0.9825468, 0
427, 221984100, 0.8709879, -0.41780734, -0.22621226, -0.12508126, -0.8743848, -0.05546653, -0.96284485, 0
428, 222000767, 0.871001, -0.41752157, -0.22638936, -0.12562267, -0.8083629, -0.09071273, -0.8393879, 0
429, 222017434, 0.87098175, -0.4171208, -0.22669236, -0.12653786, -1.1223648, -0.13247882, -0.8876085, 0
430, 222034101, 0.8707435, -0.41642082, -0.22805132, -0.12803277, -1.343486, -0.14222956, -0.9813242, 0
431, 222050768, 0.87017566, -0.41552478, -0.230639, -0.13015108, -1.3845028, -0.15897247, -1.1527004, 0
432, 222067435, 0.8692297, -0.41432792, -0.23477942, -0.13285775, -1.3457447, -0.20968086, -1.2970905, 0
433, 222084102, 0.8680519, -0.41273594, -0.2400016, -0.13614035, -1.1754227, -0.2890693, -1.3181467, 0
434, 222100769, 0.8669692, -0.41061792, -0.24525449, -0.1400276, -0.7654874, -0.30222774, -1.1730967, 0
435, 222117436, 0.86625844, -0.4080771, -0.24936491, -0.14452304, -0.46211, -0.22929971, -1.1668835, 0
436, 222134103, 0.86581314, -0.40527868, -0.25261095, -0.14934772, -0.74312514, -0.08770626, -1.2674179, 0
437, 222150770, 0.8653318, -0.40223408, -0.25617462, -0.15421791, -1.1350551, -0.018225918, -1.3542862, 0
438, 222167437, 0.86442465, -0.39896125, -0.26123458, -0.15923831, -1.3276801, 0.0693212, -1.6254482, 0
439, 222184104, 0.8627915, -0.39547092, -0.26852065, -0.16459164, -1.2686944, 0.11690689, -2.046742, 0
440, 222200771, 0.8604189, -0.39190865, -0.27756864, -0.17041925, -0.774304, 0.14980933, -2.1557822, 0
441, 222217438, 0.85782295, -0.38832304, -0.28647995, -0.17684585, 0.08202322, 0.21102439, -1.6269913, 0
442, 222234105, 0.8556381, -0.38456744, -0.29353088, -0.18393311, 0.5678707, 0.27981275, -1.189765, 0
443, 222250772, 0.8538949, -0.3808394, -0.29866967, -0.19136682, 0.5107915, 0.43730333, -1.1353436, 0
444, 222267439, 0.8521137, -0.3772617, -0.30340204, -0.19880411, 0.0015849303, 0.47097912, -1.4705124, 0
445, 222284106, 0.84955794, -0.3737205, -0.3099597, -0.2061784, -0.3351675, 0.46607614, -1.8161836, 0
446, 222300773, 0.8461055, -0.37003297, -0.31858465, -0.21374013, -0.06547142, 0.30153397, -1.6741686, 0
447, 222317440, 0.84215975, -0.3659307, -0.32828864, -0.22155948, 0.64106154, 0.19013263, -1.1304531, 0
448, 222334107, 0.83842486, -0.3615652, -0.33671734, -0.23007779, 1.469973, 0.24295947, -0.3537464, 0
449, 222350774, 0.83547133, -0.3571652, -0.34224612, -0.23934996, 1.8602042, 0.2960686, 0.11651707, 0
450, 222367441, 0.8331507, -0.35319024, -0.34545225, -0.24855511, 1.4109145, 0.41665295, -0.24075603, 0
451, 222384108, 0.830633, -0.34994403, -0.34865472, -0.25695962, 0.72532636, 0.49692586, -0.6319723, 0
452, 222400775, 0.8272055, -0.34719518, -0.35388398, -0.26448634, 0.2270724, 0.35657826, -0.73128796, 0
453, 222417442, 0.82277644, -0.34456757, -0.36129257, -0.2716243, 0.35002732, 0.16662087, -0.21927166, 0
454, 222434109, 0.8178171, -0.34184498, -0.36946994, -0.27894336, 0.7151391, -0.022746019, 0.29217148, 0
455, 222450776, 0.81279725, -0.33897668, -0.37719315, -0.2866721, 1.0234481, -0.100185215, 0.82631683, 0
456, 222467443, 0.8080701, -0.33600387, -0.3838816, -0.29454908, 0.99526656, -0.11378106, 1.0959206, 0
457, 222484110, 0.8034674, -0.33316118, -0.39021304, -0.3019568, 0.8267552, -0.003984789, 1.2393837, 0
458, 222500777, 0.7989098, -0.33076468, -0.39647743, -0.30845353, 0.74921364, 0.06213392, 1.3543777, 0
459, 222517444, 0.7942034, -0.32875362, -0.4031821, -0.31401637, 0.6532649, -0.0812825, 1.436923, 0
460, 222534111, 0.78937864, -0.32713273, -0.4101195, -0.3188534, 0.62295496, -0.12704231, 1.5828495, 0
461, 222550778, 0.7846187, -0.32557243, -0.41689622, -0.32337883, 0.6291275, -0.30233234, 1.6863804, 0
462, 222567445, 0.7802652, -0.32381907, -0.4229423, -0.32779193, 0.7068767, -0.4460029, 1.8494701, 0
463, 222584112, 0.77680504, -0.32167074, -0.42782786, -0.33176103, 0.6018236, -0.49327186, 1.9799156, 0
464, 222600779, 0.7741829, -0.3192963, -0.43202785, -0.3347282, 0.41293213, -0.4030093, 1.8805809, 0
465, 222617446, 0.77223074, -0.31704637, -0.435706, -0.33660313, 0.3410495, -0.33803162, 1.7990732, 0
466, 222634113, 0.7707698, -0.3150466, -0.43873295, -0.33789518, 0.35324657, -0.3022454, 1.7549009, 0
467, 222650780, 0.7694366, -0.31317455, -0.441239, -0.33940753, 0.1997457, -0.27753672, 1.490655, 0
468, 222667447, 0.76792103, -0.31142187, -0.44373405, -0.34119514, -0.054986645, -0.17514162, 1.2460775, 0
469, 222684114, 0.7661434, -0.30973116, -0.44661817, -0.34296232, -0.21321504, -0.16435221, 1.1397638, 0
470, 222700781, 0.76412326, -0.30819398, -0.44995832, -0.34448522, -0.17459714, -0.07965689, 1.0677814, 0
471, 222717448, 0.76210564, -0.30683684, -0.4533942, -0.34565896, -0.09517718, -0.14807779, 1.134675, 0
472, 222734115, 0.76047736, -0.3054611, -0.45638493, -0.34652665, -0.06910171, -0.25033584, 1.2516594, 0
473, 222750782, 0.7595455, -0.30380812, -0.45855048, -0.34716403, -0.16505761, -0.26581815, 1.3640089, 0
474, 222767449, 0.75929964, -0.30187243, -0.45998845, -0.34748805, -0.28174412, -0.14309455, 1.1996822, 0
475, 222784116, 0.7592257, -0.29995903, -0.4613125, -0.34755155, -0.31150353, 0.045574516, 0.8968363, 0
476, 222800783, 0.7586488, -0.29831046, -0.46337605, -0.34748453, -0.43268824, 0.19044779, 0.47745323, 0
477, 222817450, 0.7573113, -0.29719138, -0.4660568, -0.34777576, -0.21570006, 0.24901086, 0.5830116, 0
478, 222834117, 0.7556695, -0.296633, -0.4686163, -0.3483838, 0.0042199246, 0.15265085, 0.71238804, 0
479, 222850784, 0.7542182, -0.29650316, -0.47057432, -0.34899947, 0.1061948, -0.0011287404, 0.81259346, 0
480, 222867451, 0.753275, -0.2966029, -0.4716481, -0.34950238, 0.088992134, -0.10706159, 0.7216234, 0
481, 222884118, 0.75283736, -0.29650116, -0.4721391, -0.34986836, 0.039720934, -0.22870472, 0.5769787, 0
482, 222900785, 0.75284326, -0.2959498, -0.4721606, -0.35029313, 0.048082776, -0.22943896, 0.5041046, 0
483, 222917452, 0.75324184, -0.2950364, -0.47177193, -0.3507303, 0.047014385, -0.14771189, 0.40548897, 0
484, 222934119, 0.75392765, -0.29399374, -0.47114938, -0.35096934, 0.033228777, -0.10041543, 0.40712547, 0
485, 222950786, 0.7548096, -0.2927661, -0.47047842, -0.35099956, -0.04457966, -0.11233292, 0.7908058, 0
486, 222967453, 0.75589824, -0.29126224, -0.46963078, -0.35104302, 0.036815267, -0.22228654, 1.373786, 0
487, 222984120, 0.7573385, -0.28971225, -0.46828043, -0.35102528, 0.13252172, -0.06006419, 1.6576653, 0
488, 223000787, 0.759038, -0.28888246, -0.46641678, -0.35051966, 0.1080256, 0.19056201, 1.0274744, 0
489, 223017454, 0.7601567, -0.28869426, -0.46526206, -0.34978387, -0.3485356, 0.1851483, -0.18841457, 0
490, 223034121, 0.76049054, -0.28838223, -0.4651875, -0.3494144, -0.40725067, 0.07249464, -0.54641914, 0
491, 223050788, 0.7605516, -0.2874794, -0.46540868, -0.3497308, -0.22130956, -0.028716944, -0.51052856, 0
492, 223067455, 0.7607326, -0.28609008, -0.4654373, -0.35043755, -0.030596688, -0.005032394, -0.16593361, 0
493, 223084122, 0.76117724, -0.28497085, -0.46502736, -0.35092768, 0.17057256, 0.06528523, 0.4282837, 0
494, 223100789, 0.7618322, -0.28449032, -0.4643181, -0.35083622, 0.28082392, 0.0179767, 0.8567867, 0
495, 223117456, 0.7626847, -0.2843643, -0.46320632, -0.3505552, 0.15407732, -0.039852135, 0.45058823, 0
496, 223134123, 0.7636156, -0.28415495, -0.46191022, -0.3504092, -0.11557743, -0.13292338, -0.13538551, 0
497, 223150790, 0.7644068, -0.28363672, -0.460869, -0.3504746, -0.13780646, -0.044720918, -0.077399254, 0
498, 223167457, 0.7651505, -0.28305057, -0.4598684, -0.35064, -0.068737835, 0.020056712, 0.14445591, 0
499, 223184124, 0.7658114, -0.28257054, -0.45899153, -0.35073313, -0.074542016, 0.04871912, 0.18450356, 0
500, 223200791, 0.76631767, -0.28223774, -0.45825583, -0.35085738, -0.11201173, 0.074280284, 0.08461285, 0
501, 223217458, 0.7666318, -0.2819853, -0.45778567, -0.3509877, -0.120294675, 0.079974055, 0.072154045, 0
502, 223234125, 0.76680833, -0.2818607, -0.4575627, -0.35099298, -0.076537095, 0.12495559, 0.18775272, 0
503, 223250792, 0.76690644, -0.2819422, -0.45747054, -0.35083342, -0.08239872, 0.14308137, 0.32891846, 0
504, 223267459, 0.766871, -0.28221378, -0.457627, -0.3504882, -0.28572065, 0.11562683, 0.45269394, 0
505, 223284126, 0.76654786, -0.28257495, -0.45830092, -0.35002324, -0.4269187, 0.14270274, 0.6757889, 0
506, 223300793, 0.76562345, -0.28324133, -0.45960444, -0.3497982, -0.30934328, 0.22971298, 1.176156, 0
507, 223317460, 0.7646222, -0.28442308, -0.4606365, -0.34967178, -0.37321076, 0.34501302, 2.1290636, 0
508, 223334127, 0.7640391, -0.28599098, -0.46109235, -0.34906664, -0.23125589, 0.065695375, 3.3914042, 0
509, 223350794, 0.7649656, -0.28774405, -0.459531, -0.34765264, -0.15609296, -0.17394918, 4.5812845, 0
510, 223367461, 0.7678247, -0.2895051, -0.45557377, -0.34508672, -0.31934726, -0.25870708, 4.87595, 0
511, 223384128, 0.7722376, -0.29162854, -0.4495289, -0.34135893, -0.25910738, -0.07578453, 4.8112755, 0
512, 223400795, 0.77751803, -0.29443693, -0.4418678, -0.33693567, -0.31924042, 0.01860656, 4.262904, 0
513, 223417462, 0.78271997, -0.2978662, -0.4339895, -0.332082, -0.5301571, 0.09512689, 3.4504051, 0
514, 223434129, 0.78687686, -0.30177298, -0.42742506, -0.3272093, -0.63099116, 0.1688484, 2.627592, 0
515, 223450796, 0.78995204, -0.30625105, -0.4223685, -0.32216617, -0.25232556, 0.11152827, 2.234848, 0
516, 223467463, 0.79260945, -0.3110817, -0.4180092, -0.31664932, 0.14266296, -0.11044446, 2.0520258, 0
517, 223484130, 0.79564196, -0.31593868, -0.41298217, -0.31077746, 0.64734894, -0.26888227, 1.9388103, 0
518, 223500797, 0.7995359, -0.32066137, -0.40637803, -0.30459115, 0.9656381, -0.33004257, 1.4933348, 0
519, 223517464, 0.80434245, -0.3252401, -0.39809272, -0.2979502, 1.0560668, -0.3548664, 1.0312357, 0
520, 223534131, 0.8098399, -0.329759, -0.38831726, -0.29090926, 1.1518179, -0.23177063, 0.56292534, 0
521, 223550798, 0.81563866, -0.33430052, -0.37759322, -0.28354946, 1.0827819, -0.138129, 0.0032014847, 0
522, 223567465, 0.82104945, -0.33886534, -0.3671969, -0.27607003, 0.7234678, -0.04470773, -0.62923336, 0
523, 223584132, 0.8255647, -0.3432787, -0.35837537, -0.26864478, 0.43240035, -0.03610226, -1.0653791, 0
524, 223600799, 0.82917583, -0.34738392, -0.3513059, -0.26148888, 0.3879718, -0.08514838, -1.171175, 0
525, 223617466, 0.83211845, -0.35110113, -0.34558496, -0.25471234, 0.5116618, -0.1512369, -1.1810389, 0
526, 223634133, 0.8348272, -0.35451227, -0.3403029, -0.24815042, 0.73795664, -0.11822628, -1.1010151, 0
527, 223650800, 0.8375827, -0.35784602, -0.33469862, -0.24161623, 0.947673, -0.085208505, -1.1144543, 0
528, 223667467, 0.840197, -0.3610567, -0.32919824, -0.23523578, 0.9382741, -0.071250565, -1.2448931, 0
529, 223684134, 0.8426327, -0.36422074, -0.32394227, -0.22885531, 0.9300662, -0.03570955, -1.3351316, 0
530, 223700801, 0.8447903, -0.36713976, -0.31950355, -0.22238572, 0.7234113, -0.059694722, -1.4283161, 0
531, 223717468, 0.84672344, -0.3697508, -0.31583846, -0.21584727, 0.7526517, -0.05464087, -1.4162493, 0
532, 223734135, 0.848699, -0.3721404, -0.3121527, -0.20924231, 0.99230456, -0.08714591, -1.3029785, 0
533, 223750802, 0.8511226, -0.37433693, -0.3072548, -0.2026256, 1.1383562, -0.120943755, -1.1923618, 0
534, 223767469, 0.8539492, -0.3763372, -0.3011017, -0.19616032, 0.97768503, -0.029055344, -1.2546463, 0
535, 223784136, 0.85695875, -0.37804273, -0.2943535, -0.18989837, 0.65405434, 0.05464914, -1.2292356, 0
536, 223800803, 0.8598564, -0.37957263, -0.28767225, -0.18389212, 0.28240258, 0.14512183, -1.3910923, 0
537, 223817470, 0.8622775, -0.38087052, -0.2822462, -0.17819224, -0.11196904, 0.14221436, -1.5050087, 0
538, 223834137, 0.86411947, -0.38208535, -0.27824846, -0.17287628, -0.14809053, 0.22278744, -1.3252115, 0
539, 223850804, 0.86549836, -0.38373175, -0.2746755, -0.16797622, 0.05687019, 0.27569988, -1.2594442, 0
540, 223867471, 0.86670506, -0.38580492, -0.27079988, -0.16323157, 0.07723468, 0.15310861, -1.117753, 0
541, 223884138, 0.8678943, -0.38811052, -0.26632565, -0.15874708, -0.072823204, 0.06926666, -0.9358988, 0
542, 223900805, 0.8689877, -0.3902164, -0.2620844, -0.15460838, -0.29968762, -0.01677487, -0.9372492, 0
543, 223917472, 0.87007314, -0.3919392, -0.25813538, -0.15073967, -0.4842491, -0.10913959, -0.79788685, 0
544, 223934139, 0.87110597, -0.3931896, -0.25481096, -0.14713182, -0.6142451, -0.11082376, -0.7790909, 0
545, 223950806, 0.8720154, -0.39419457, -0.25195798, -0.14393392, -0.52669466, 0.01845323, -0.728178, 0
546, 223967473, 0.8727286, -0.39552307, -0.24903083, -0.14103311, -0.3775467, 0.17876565, -0.744174, 0
547, 223984140, 0.8734216, -0.3972667, -0.24543075, -0.13812234, -0.33125716, 0.14209166, -0.5127888, 0
548, 224000807, 0.8740706, -0.39912578, -0.24156912, -0.13543952, -0.6299074, 0.048330877, -0.29512787, 0
549, 224017474, 0.8744791, -0.4008675, -0.23835091, -0.13334343, -0.9080697, 0.023126438, -0.31141758, 0
550, 224034141, 0.87462306, -0.40241772, -0.23618384, -0.1315742, -0.9302701, 0.02274736, -0.34364796, 0
551, 224050808, 0.87461877, -0.4038127, -0.23463625, -0.13008924, -0.5967443, 0.006704942, -0.2407999, 0
552, 224067475, 0.87464035, -0.40504974, -0.23304808, -0.12894823, -0.29514596, 0.001491949, -0.10678196, 0
553, 224084142, 0.87473434, -0.40630415, -0.23106764, -0.12792449, -0.12285457, 0.03690981, -0.11285782, 0
554, 224100809, 0.8748845, -0.40774366, -0.22857575, -0.12679031, 0.0131356325, 0.031646527, -0.12003231, 0
555, 224117476, 0.87509555, -0.4093537, -0.22558054, -0.12550281, -0.061830614, -0.029274385, -0.07386494, 0
556, 224134143, 0.8754626, -0.41085735, -0.22233358, -0.12381263, -0.36428565, -0.12069454, -0.033153534, 0
557, 224150810, 0.87582767, -0.41193986, -0.2199374, -0.121898316, -0.78066057, -0.18936934, -0.106422424, 0
558, 224167477, 0.87600803, -0.41256964, -0.21904133, -0.12007194, -0.95793796, -0.20831676, -0.17559624, 0
559, 224184144, 0.8760647, -0.4128327, -0.21911825, -0.11860488, -0.62946355, -0.31487724, -0.21598911, 0
560, 224200811, 0.8761527, -0.412959, -0.2191452, -0.11746028, -0.46960652, -0.34720927, -0.4375887, 0
561, 224217478, 0.8763163, -0.41320035, -0.21862975, -0.11634629, -0.3677777, -0.31387722, -0.6499958, 0
562, 224234145, 0.87659794, -0.4135295, -0.21745677, -0.115248896, -0.4977334, -0.33253923, -0.7221556, 0
563, 224250812, 0.8769394, -0.41359857, -0.2163838, -0.11441876, -0.6527146, -0.34573027, -0.48249626, 0
564, 224267479, 0.8772976, -0.41322646, -0.21592616, -0.113882415, -0.7489006, -0.21669559, -0.30290413, 0
565, 224284146, 0.87750375, -0.41262794, -0.21630931, -0.1137359, -0.6246006, -0.01866959, -0.20249557, 0
566, 224300813, 0.8774805, -0.41203088, -0.21745336, -0.11389899, -0.52318305, 0.07881648, -0.16090584, 0
567, 224317480, 0.87730694, -0.41170898, -0.21863423, -0.11413861, -0.20867974, 0.11771601, -0.15793037, 0
568, 224334147, 0.87718517, -0.41167423, -0.2190254, -0.11444815, -0.0861629, 0.057608675, -0.12121391, 0
569, 224350814, 0.8771498, -0.41173494, -0.21872489, -0.11507322, -0.1467433, 0.022909183, -0.19198322, 0
570, 224367481, 0.87708426, -0.4116744, -0.21857664, -0.11606747, -0.50839037, -0.028404698, -0.25116348, 0
571, 224384148, 0.87688416, -0.41129884, -0.21951076, -0.11714405, -0.7975797, -0.06831651, -0.3466692, 0
572, 224400815, 0.8764284, -0.41074345, -0.22175464, -0.11827114, -0.7089853, -0.053466085, -0.5744152, 0
573, 224417482, 0.87575376, -0.41021785, -0.22469819, -0.11953061, -0.4518709, -0.1238226, -0.79281044, 0
574, 224434149, 0.8750365, -0.40973786, -0.22763674, -0.12086264, -0.33946422, -0.2537147, -0.9760809, 0
575, 224450816, 0.87455964, -0.4089957, -0.23001343, -0.12231839, -0.2454844, -0.3569303, -0.89539623, 0
576, 224467483, 0.87442774, -0.40774837, -0.23175925, -0.12411732, -0.40268698, -0.36596557, -0.81491184, 0
577, 224484150, 0.8744478, -0.40587267, -0.23382282, -0.1262358, -0.8236657, -0.21462473, -0.78872204, 0
578, 224500817, 0.87426484, -0.4037447, -0.23689903, -0.12857045, -1.1059749, -0.0430819, -0.9694681, 0
579, 224517484, 0.8734699, -0.40168712, -0.24184424, -0.13118438, -1.237108, 0.045985334, -1.4449072, 0
580, 224534151, 0.87178993, -0.39994228, -0.24886203, -0.13452189, -1.0958078, -0.03544066, -1.814487, 0
581, 224550818, 0.86957616, -0.39810044, -0.25715882, -0.13864616, -0.5702754, -0.23335154, -1.5815992, 0
582, 224567485, 0.86767155, -0.39574465, -0.26445243, -0.14351709, 0.17595834, -0.301251, -1.1248722, 0
583, 224584152, 0.8664638, -0.39289784, -0.26972, -0.14873771, 0.30661395, -0.16818456, -1.1805372, 0
584, 224600819, 0.86568373, -0.38977593, -0.27386606, -0.15383084, -0.041871354, 0.0057080737, -1.4563551, 0
585, 224617486, 0.8646776, -0.38665867, -0.27862358, -0.15873455, -0.42343077, 0.12122471, -1.879919, 0
586, 224634153, 0.86296827, -0.3836554, -0.28486297, -0.16415632, -0.33634812, 0.13747992, -1.8431816, 0
587, 224650820, 0.8605868, -0.3806333, -0.29209882, -0.17084232, 0.10445163, 0.106272586, -1.475872, 0
588, 224667487, 0.857916, -0.37751335, -0.29925212, -0.17864023, 0.29639494, 0.09768388, -1.2916279, 0
589, 224684154, 0.85514617, -0.37437785, -0.3060942, -0.1867424, 0.3213828, 0.14260775, -1.319993, 0
590, 224700821, 0.8521123, -0.37124753, -0.31319582, -0.19490652, 0.16844942, 0.17316376, -1.3772345, 0
591, 224717488, 0.84859926, -0.36806968, -0.32124957, -0.2029845, 0.16664433, 0.16404733, -1.1424675, 0
592, 224734155, 0.84503776, -0.3649309, -0.3290457, -0.21086873, 0.53339064, 0.03488635, -0.62856483, 0
593, 224750822, 0.8419634, -0.36191896, -0.33522618, -0.21848515, 0.84698087, -0.022271948, -0.25888348, 0
594, 224767489, 0.8393607, -0.35913867, -0.33977556, -0.22593302, 0.73738736, 0.049960732, -0.35083008, 0
595, 224784156, 0.8365601, -0.3566334, -0.34439608, -0.23317711, 0.31015396, 0.11483581, -0.60483456, 0
596, 224800823, 0.8330296, -0.35415152, -0.35062122, -0.24021542, -0.11022318, 0.07127448, -0.5016365, 0
597, 224817490, 0.8286001, -0.3509753, -0.35933334, -0.24722056, -0.15125345, -0.04168852, 0.026286125, 0
598, 224834157, 0.8235691, -0.34721702, -0.36956403, -0.2541593, 0.30339447, 0.046775002, 0.406353, 0
599, 224850824, 0.8182837, -0.34360602, -0.38004607, -0.26059908, 0.79692626, 0.2158592, 0.54678154, 0
600, 224867491, 0.812837, -0.340896, -0.38997966, -0.2664616, 1.0697951, 0.28348953, 0.67999077, 0
601, 224884158, 0.8076121, -0.33902535, -0.39854404, -0.2720063, 1.0696067, 0.04897102, 1.0636978, 0
602, 224900825, 0.8031844, -0.3373373, -0.40526226, -0.27723828, 0.88857573, -0.19852331, 1.3595715, 0
603, 224917492, 0.7992206, -0.33536446, -0.41103527, -0.28253725, 0.62120175, -0.19736642, 1.204875, 0
604, 224934159, 0.79505014, -0.3329747, -0.41747677, -0.28763956, 0.36863747, -0.15311688, 1.1334858, 0
605, 224950826, 0.790856, -0.3305726, -0.42429152, -0.2919684, 0.47333762, -0.11883536, 1.4122715, 0
606, 224967493, 0.78712046, -0.3284545, -0.43043867, -0.29543483, 0.6635284, -0.13122244, 1.566534, 0
607, 224984160, 0.7837706, -0.3266965, -0.43571782, -0.29853532, 0.72238606, -0.12806532, 1.4794292, 0
608, 225000827, 0.7802128, -0.3252277, -0.4409133, -0.30181223, 0.5398236, -0.07912649, 1.1969805, 0
609, 225017494, 0.77636164, -0.32375935, -0.44648907, -0.30510688, 0.369323, -0.15367767, 1.4039936, 0
610, 225034161, 0.77287567, -0.32182807, -0.45195833, -0.3079344, 0.2772267, -0.3197201, 1.7434406, 0
611, 225050828, 0.7701538, -0.31924972, -0.4569393, -0.31007963, 0.26935995, -0.28502217, 1.9387312, 0
612, 225067495, 0.7679107, -0.31649518, -0.4613081, -0.31199187, 0.3980131, -0.012706712, 1.8323307, 0
613, 225084162, 0.76573503, -0.31418443, -0.46520317, -0.3138859, 0.42610243, 0.1807632, 1.5501289, 0
614, 225100829, 0.7633683, -0.3122776, -0.46907413, -0.31578654, 0.28540996, 0.09593221, 1.3719912, 0
615, 225117496, 0.76109797, -0.31027052, -0.47292125, -0.31750223, 0.1118955, -0.09659649, 1.3783083, 0
616, 225134163, 0.75957257, -0.30782032, -0.47609156, -0.3187994, 0.09330593, -0.1709217, 1.5169964, 0
617, 225150830, 0.75900906, -0.30500185, -0.4782266, -0.319654, 0.049088363, -0.09110433, 1.3870535, 0
618, 225167497, 0.7590181, -0.30224833, -0.47976038, -0.31994906, -0.12084764, 0.0851904, 1.0222359, 0
619, 225184164, 0.7590411, -0.29988703, -0.481323, -0.3197695, -0.25648895, 0.1524877, 0.722476, 0
620, 225200831, 0.75854045, -0.2977525, -0.4835296, -0.31962323, -0.33751172, 0.11711967, 0.60312176, 0
621, 225217498, 0.7575732, -0.29566872, -0.48602727, -0.32006314, -0.18373838, 0.056151148, 0.7200308, 0
622, 225234165, 0.7567886, -0.2935248, -0.48803785, -0.3208323, -0.15608402, -0.07927424, 0.9769268, 0
623, 225250832, 0.7566306, -0.29126382, -0.48915908, -0.32155704, -0.17316264, -0.051847182, 1.1065931, 0
624, 225267499, 0.7569188, -0.2890314, -0.48966163, -0.32212812, -0.2567851, 0.056203898, 0.8634176, 0
625, 225284166, 0.7572264, -0.2870151, -0.49014115, -0.32247853, -0.29925457, 0.10324041, 0.6991348, 0
626, 225300833, 0.7574243, -0.2852875, -0.49064437, -0.32278138, -0.24606541, 0.0807749, 0.75253963, 0
627, 225317500, 0.75757766, -0.28378397, -0.4910654, -0.32310623, -0.19106245, 0.0811247, 0.82382107, 0
628, 225334167, 0.7578815, -0.2825349, -0.4912036, -0.32327846, -0.18995963, 0.02542013, 0.99925613, 0
629, 225350834, 0.7584144, -0.28146055, -0.49098676, -0.3232953, -0.16481934, 0.01241391, 0.95440674, 0
630, 225367501, 0.75900024, -0.28056893, -0.49060655, -0.32327282, -0.11616997, 3.2141164E-4, 0.6787052, 0
631, 225384168, 0.7595041, -0.27983302, -0.49025834, -0.3232554, -0.13549757, -0.020638293, 0.29670906, 0
632, 225400835, 0.7597471, -0.27917975, -0.49015617, -0.3234037, -0.06079083, 0.026893303, -0.0616951, 0
633, 225417502, 0.75984555, -0.27837145, -0.49028566, -0.32367283, -0.055263355, -0.04771577, -0.21436977, 0
634, 225434169, 0.75997466, -0.27722803, -0.4904321, -0.324129, -0.020194173, -0.12112167, -0.09686661, 0
635, 225450836, 0.760334, -0.27572203, -0.490324, -0.3247341, 0.06425841, -0.08769777, 0.007425308, 0
636, 225467503, 0.7609336, -0.27407146, -0.48993042, -0.32532004, 0.12735566, -0.061865702, 0.13328457, 0
637, 225484170, 0.76158607, -0.27245048, -0.4894124, -0.3259339, 0.1079657, -0.043378726, 0.38709927, 0
638, 225500837, 0.7624302, -0.27136424, -0.48847762, -0.3262687, 0.23899749, 0.11910134, 0.830698, 0
639, 225517504, 0.76344365, -0.2710451, -0.48713532, -0.32617146, 0.06611066, 0.16893266, 0.65690804, 0
640, 225534171, 0.7641443, -0.27108815, -0.4862514, -0.32581368, -0.26480788, 0.09527754, -0.060709, 0
641, 225550838, 0.7643797, -0.27095413, -0.48612967, -0.3255543, -0.31797713, 3.2141164E-4, -0.24486828, 0
642, 225567505, 0.7645375, -0.2705067, -0.48608643, -0.32562035, -0.15210101, 0.059105095, -0.016555786, 0
643, 225584172, 0.7647455, -0.27005237, -0.4859509, -0.3257118, -0.067483254, 0.12817685, 0.1663065, 0
644, 225600839, 0.7647571, -0.26995203, -0.48598978, -0.32570922, -0.02269953, 0.14542289, 0.30649185, 0
645, 225617506, 0.7646001, -0.27024716, -0.4861593, -0.32557997, 0.019850185, 0.10256875, 0.38557053, 0
646, 225634173, 0.76439255, -0.27064326, -0.4863356, -0.32547483, -0.136496, 0.028318867, 0.40949917, 0
647, 225650840, 0.76420724, -0.2708818, -0.4864928, -0.32547697, -0.30848497, 0.044204157, 0.6455126, 0
648, 225667507, 0.7642154, -0.27099103, -0.48640284, -0.3255015, -0.36934087, 0.03841629, 1.2867279, 0
649, 225684174, 0.76508933, -0.2712237, -0.48500744, -0.3253366, -0.42944035, 0.14245844, 2.1208916, 0
650, 225700841, 0.76657945, -0.27155685, -0.4827634, -0.3248884, -0.70324236, 0.19384518, 2.3375483, 0
651, 225717508, 0.76779026, -0.27205443, -0.4810218, -0.32419562, -1.1617076, 0.31954575, 2.432701, 0
652, 225734175, 0.7686187, -0.27284294, -0.4798952, -0.3232381, -1.1195124, 0.36872685, 3.055397, 0
653, 225750842, 0.76957035, -0.27410802, -0.47863793, -0.32176417, -0.86110735, 0.37283033, 3.8757868, 0
654, 225767509, 0.7712324, -0.27626088, -0.47608376, -0.31972635, -0.5428097, 0.45024985, 4.450965, 0
655, 225784176, 0.7740507, -0.27960047, -0.47139776, -0.31694394, -0.32865524, 0.3976224, 4.717271, 0
656, 225800843, 0.77826935, -0.28388432, -0.46427846, -0.31329265, -0.19557339, 0.2503419, 4.6594524, 0
657, 225817510, 0.78326255, -0.2885405, -0.45553356, -0.30940843, -0.25744805, 0.17678913, 4.1798944, 0
658, 225834177, 0.7884573, -0.29334098, -0.44610974, -0.30540502, -0.11492455, 0.15871945, 3.5733185, 0
659, 225850844, 0.7938545, -0.29854786, -0.4361343, -0.30075118, 0.22846466, 0.14335026, 2.885023, 0
660, 225867511, 0.79926217, -0.30419096, -0.4258143, -0.2955171, 0.5873165, 0.05494105, 2.1331024, 0
661, 225884178, 0.8046443, -0.310124, -0.41506708, -0.28998291, 0.8153004, -0.10581997, 1.341918, 0
662, 225900845, 0.8100177, -0.31603992, -0.4040044, -0.28420168, 0.97131646, -0.2835785, 0.68706703, 0
663, 225917512, 0.81550664, -0.32158896, -0.39256677, -0.27824634, 1.0814523, -0.4484888, 0.17585468, 0
664, 225934179, 0.820863, -0.32629436, -0.38150853, -0.2723374, 0.91937876, -0.51635224, -0.33870602, 0
665, 225950846, 0.8258209, -0.33028907, -0.37137717, -0.26647344, 0.9342365, -0.36693653, -0.72209644, 0
666, 225967513, 0.83041376, -0.3341698, -0.36185065, -0.26039955, 1.1749376, -0.2177937, -1.0232029, 0
667, 225984180, 0.8349002, -0.33827612, -0.35215768, -0.2539603, 1.4938521, -0.23525588, -1.0251617, 0
668, 226000847, 0.83949023, -0.34245852, -0.34170252, -0.24742259, 1.5816213, -0.3662548, -1.0024748, 0
669, 226017514, 0.84428334, -0.34626266, -0.3306271, -0.24077697, 1.410035, -0.44730195, -1.0106249, 0
670, 226034181, 0.8489802, -0.34941146, -0.31992117, -0.23408248, 1.0093488, -0.3575206, -1.1686792, 0
671, 226050848, 0.8530672, -0.35226956, -0.31051552, -0.22751352, 0.91323954, -0.104536116, -1.4155998, 0
672, 226067515, 0.85648227, -0.35528192, -0.30232918, -0.22092997, 0.9768721, -0.05197302, -1.580102, 0
673, 226084182, 0.8593894, -0.3584914, -0.29495203, -0.21432988, 1.1636487, -0.08347359, -1.4200869, 0
674, 226100849, 0.86227137, -0.36184388, -0.28716013, -0.20759653, 1.3970532, -0.04430854, -1.2653751, 0
675, 226117516, 0.86531353, -0.36549166, -0.2782921, -0.20050445, 1.604217, 0.08136386, -1.35003, 0
676, 226134183, 0.86827236, -0.36939374, -0.26876494, -0.19343483, 1.3129846, 0.060684662, -1.4690504, 0
677, 226150850, 0.87081116, -0.37312144, -0.25998712, -0.18674885, 0.581783, -0.026389057, -1.4932556, 0
678, 226167517, 0.8728872, -0.37632763, -0.25286847, -0.18028615, 0.17094035, -0.0059894766, -1.5075035, 0
679, 226184184, 0.87467265, -0.37908602, -0.24707218, -0.17377296, 0.12888305, 0.033007722, -1.5040264, 0
680, 226200851, 0.8763098, -0.38154763, -0.24186778, -0.16733973, 0.30563933, 0.033501238, -1.4162922, 0
681, 226217518, 0.8780251, -0.38377744, -0.23625463, -0.16115437, 0.37917218, -0.013685475, -1.2967758, 0
682, 226234185, 0.88001066, -0.38574728, -0.22967835, -0.15500964, 0.22985704, 0.039628625, -1.188406, 0
683, 226250852, 0.88219744, -0.38746545, -0.2223428, -0.14886843, -0.055195518, 0.075929366, -1.239706, 0
684, 226267519, 0.88424957, -0.389002, -0.21532635, -0.14288113, -0.67153805, 0.012983421, -1.4989786, 0
685, 226284186, 0.88592786, -0.39024273, -0.20974186, -0.13729881, -1.1170893, -0.049456935, -1.4952269, 0
686, 226300853, 0.8871595, -0.391185, -0.20576422, -0.13260324, -1.173272, -0.09150598, -1.2653189, 0
687, 226317520, 0.88808215, -0.39184615, -0.20287775, -0.12886935, -0.97252053, -0.055311188, -1.0195293, 0
688, 226334187, 0.8888478, -0.39237675, -0.20022371, -0.12609705, -0.7340085, 0.001845323, -0.9302435, 0
689, 226350854, 0.8894658, -0.39304122, -0.19740467, -0.12409889, -0.63053554, 0.062955774, -0.93682957, 0
690, 226367521, 0.8900214, -0.39398304, -0.19420514, -0.122162804, -0.4814763, 0.08769374, -0.8988886, 0
691, 226384188, 0.8906194, -0.39516178, -0.19032383, -0.1200883, -0.40654615, 0.052507218, -0.6922207, 0
692, 226400855, 0.89114845, -0.39630634, -0.18664615, -0.118148364, -0.63284296, 0.021923492, -0.54766655, 0
693, 226417522, 0.89156455, -0.39717296, -0.18392664, -0.11635019, -0.7992515, -0.016974915, -0.33225918, 0
694, 226434189, 0.8918518, -0.39774135, -0.1821581, -0.11498174, -0.7779422, 0.001690652, -0.22289944, 0
695, 226450856, 0.89190096, -0.39839178, -0.18106522, -0.11407001, -0.69973814, 0.03384925, -0.31274033, 0
696, 226467523, 0.89170885, -0.3993948, -0.18013671, -0.113533795, -0.5716134, 0.013247613, -0.42388344, 0
697, 226484190, 0.8914704, -0.4006636, -0.17877893, -0.11308123, -0.4201409, -0.033789124, -0.304574, 0
698, 226500857, 0.89144534, -0.40184456, -0.17659992, -0.11251124, -0.4967846, -0.1161798, -0.17326164, 0
699, 226517524, 0.89152825, -0.40270445, -0.17470303, -0.11173824, -1.0139884, -0.1316165, -0.27668095, 0
700, 226534191, 0.8914253, -0.40322018, -0.17461449, -0.1108348, -1.2428215, -0.15135515, -0.34723186, 0
701, 226550858, 0.8910591, -0.4035899, -0.17607912, -0.11011278, -0.95273316, -0.2543535, -0.43801308, 0
702, 226567525, 0.89061654, -0.4037302, -0.17830259, -0.10960171, -0.5755643, -0.34212345, -0.40833473, 0
703, 226584192, 0.89039665, -0.40368754, -0.17964903, -0.10934538, 0.027901234, -0.29005456, -0.26166344, 0
704, 226600859, 0.8905152, -0.4034551, -0.17951989, -0.109449886, 0.06827572, -0.23020203, -0.19160557, 0
705, 226617526, 0.89082325, -0.4030361, -0.17878595, -0.109688394, -0.17995419, -0.12634383, -0.08728504, 0
706, 226634193, 0.891178, -0.4025391, -0.17806074, -0.109812155, -0.43925494, -0.03511925, -0.1406393, 0
707, 226650860, 0.8913158, -0.40205455, -0.17841887, -0.10988636, -0.70997965, -0.03378242, -0.28757858, 0
708, 226667527, 0.8910962, -0.40162945, -0.18027522, -0.11019323, -0.62055, -0.14295977, -0.3951187, 0
709, 226684194, 0.8908003, -0.401024, -0.18279825, -0.11063223, -0.22454548, -0.31946817, -0.30387115, 0
710, 226700861, 0.89079237, -0.3999813, -0.18467331, -0.111354604, 0.24856417, -0.37316874, -0.17354584, 0
711, 226717528, 0.8911885, -0.39851642, -0.18521638, -0.1125292, 0.36095452, -0.25031662, -0.06818199, 0
712, 226734195, 0.8917955, -0.39686638, -0.18497461, -0.11394022, -0.103986494, -0.05284338, -0.17070293, 0
713, 226750862, 0.89224744, -0.39533865, -0.18522853, -0.11529341, -0.63264763, 0.06272757, -0.28398132, 0
714, 226767529, 0.8922968, -0.3939357, -0.18716136, -0.116584174, -1.0274963, 2.6978014E-4, -0.41918182, 0
715, 226784196, 0.89196557, -0.39257345, -0.19065732, -0.1180406, -0.8004854, -0.05891891, -0.50575066, 0
716, 226800863, 0.8914918, -0.39131698, -0.19439968, -0.11967726, -0.43532, -0.097632244, -0.5904436, 0
717, 226817530, 0.89098173, -0.3901219, -0.1980066, -0.121449426, -0.45098543, -0.14228834, -0.8625059, 0
718, 226834197, 0.89027864, -0.38911116, -0.20192055, -0.1233891, -0.70465344, -0.13568354, -1.2395754, 0
719, 226850864, 0.8892695, -0.38824248, -0.20677379, -0.1253491, -0.87299114, -0.23753348, -1.5788755, 0
720, 226867531, 0.888096, -0.38710275, -0.21258618, -0.12745291, -0.6844746, -0.34605885, -1.3746634, 0
721, 226884198, 0.8869677, -0.38552243, -0.2185009, -0.13007028, -0.36658964, -0.34623542, -1.1813765, 0
722, 226900865, 0.8858362, -0.3835738, -0.22452755, -0.13324025, -0.303525, -0.18244536, -1.2644491, 0
723, 226917532, 0.88442427, -0.38165787, -0.23113059, -0.1367836, -0.58233225, -0.003595206, -1.630744, 0
724, 226934199, 0.8822215, -0.37992302, -0.24000378, -0.14050648, -1.0280362, 0.0057605994, -2.142181, 0
725, 226950866, 0.8789948, -0.37836638, -0.25170192, -0.14440711, -0.8184966, -0.112706184, -2.2037463, 0
726, 226967533, 0.87534, -0.37653404, -0.264384, -0.14867213, 0.0041739927, -0.27981722, -1.547862, 0
727, 226984200, 0.8722798, -0.37390804, -0.27527452, -0.1534435, 0.85143864, -0.32636356, -0.6638069, 0
728, 227000867, 0.87039286, -0.37036893, -0.2830649, -0.15848584, 0.9913036, -0.18212596, -0.43588924, 0
729, 227017534, 0.8690609, -0.3664437, -0.28931522, -0.16355114, 0.3211859, 0.16476615, -0.883749, 0
730, 227034201, 0.8671973, -0.36288422, -0.29645428, -0.16851945, -0.23318973, 0.36226198, -1.3953037, 0
731, 227050868, 0.8641883, -0.3598602, -0.30592597, -0.17346077, -0.20926088, 0.3263508, -1.3352728, 0
732, 227067535, 0.86034095, -0.35723, -0.3167951, -0.17844161, 0.26385817, 0.15618818, -0.9689121, 0
733, 227084202, 0.8563626, -0.3547209, -0.32740155, -0.18337016, 0.78840685, -0.037971947, -0.53176117, 0
734, 227100869, 0.8528845, -0.35209364, -0.33634156, -0.18839502, 1.0195338, -0.12765808, -0.2506771, 0
735, 227117536, 0.8499549, -0.34916776, -0.3436792, -0.19376165, 0.8637678, -0.09207817, -0.053785324, 0
736, 227134203, 0.8472743, -0.34598497, -0.35011405, -0.19960187, 0.4466531, 0.08918793, -0.07198143, 0
737, 227150870, 0.8442114, -0.34299183, -0.35703814, -0.20539598, 0.18307701, 0.4044972, -0.35544586, 0
738, 227167537, 0.84024775, -0.34076568, -0.36511862, -0.21107115, 0.10183697, 0.57748437, -0.62697697, 0
739, 227184204, 0.8347824, -0.33917677, -0.3754625, -0.21708417, 0.06135967, 0.51693004, -0.9226227, 0
740, 227200871, 0.82826227, -0.3377471, -0.38716617, -0.223632, 0.6057478, 0.23652074, -0.10191345, 0
741, 227217538, 0.82230455, -0.33585483, -0.39747936, -0.23027597, 1.0527852, -0.04806333, 0.72360134, 0
742, 227234205, 0.81766784, -0.3332982, -0.4053645, -0.23666695, 1.2397895, -0.07759766, 1.0064859, 0
743, 227250872, 0.8144688, -0.3305928, -0.41063207, -0.24234377, 1.1058162, 0.050546113, 0.8448067, 0
744, 227267539, 0.8116747, -0.3278402, -0.4152662, -0.24750544, 0.5562708, 0.15333772, 0.38745403, 0
745, 227284206, 0.8080531, -0.32493356, -0.42138055, -0.2527982, 0.33796075, 0.16842729, 0.37141132, 0
746, 227300873, 0.80372006, -0.32177737, -0.42865404, -0.25835857, 0.40302828, 0.064361006, 0.7733698, 0
747, 227317540, 0.79946977, -0.31833616, -0.43587235, -0.26367697, 0.67372906, -0.01795055, 1.3226566, 0
748, 227334207, 0.79607695, -0.31502646, -0.44157392, -0.26838845, 0.8943804, 0.037873153, 1.6851826, 0
749, 227350874, 0.79384303, -0.31194142, -0.44526374, -0.27248132, 0.83217764, -0.016268168, 2.0084076, 0
750, 227367541, 0.79277134, -0.30877972, -0.4471214, -0.27613637, 0.56400007, -0.11848221, 2.1659555, 0
751, 227384208, 0.7924931, -0.30532354, -0.4478794, -0.27952898, 0.1331203, -0.121179335, 2.0061264, 0
752, 227400875, 0.7924, -0.3018014, -0.44861713, -0.28241953, -0.15692621, 0.009053839, 1.626853, 0
753, 227417542, 0.7920908, -0.29871073, -0.4496751, -0.28487957, -0.15680194, 0.12424839, 1.3876171, 0
754, 227434209, 0.79150754, -0.29613692, -0.4510748, -0.28696746, -0.12722448, 0.054869525, 1.46941, 0
755, 227450876, 0.7909877, -0.293756, -0.45236427, -0.28881228, -0.15571968, -0.10399834, 1.9300995, 0
756, 227467543, 0.79100466, -0.2913171, -0.4528967, -0.2903971, -0.1747916, -0.16606209, 2.1084585, 0
757, 227484210, 0.7909114, -0.28881422, -0.45359862, -0.29205137, -0.35278168, -0.06463056, 1.7729454, 0
758, 227500877, 0.79012144, -0.28656226, -0.4551973, -0.29391453, -0.40458393, 0.06587172, 1.3292532, 0
759, 227517544, 0.7884726, -0.2847126, -0.45790127, -0.29593283, -0.29921547, 0.08041795, 1.0171442, 0
760, 227534211, 0.78647614, -0.28307122, -0.460931, -0.29810873, -0.03327795, -0.034901995, 1.1619749, 0
761, 227550878, 0.7849914, -0.28137118, -0.4632117, -0.3000898, 0.13017887, -0.1524126, 1.3613052, 0
762, 227567545, 0.7844841, -0.27972022, -0.46415246, -0.30150297, 0.13562855, -0.14274432, 1.3537655, 0
763, 227584212, 0.78453976, -0.2783055, -0.46432677, -0.30239797, -0.02688548, -0.07149531, 1.0203514, 0
764, 227600879, 0.78453326, -0.2772048, -0.46459982, -0.30300575, -0.19746274, -0.07888041, 0.7823448, 0
765, 227617546, 0.784431, -0.2762212, -0.46508092, -0.3034303, -0.2281428, -0.1654036, 0.71167755, 0
766, 227634213, 0.78413624, -0.27517447, -0.4658577, -0.30395088, -0.2169477, -0.16543624, 0.4995985, 0
767, 227650880, 0.78354776, -0.27412853, -0.467043, -0.3045939, -0.11776227, -0.10833673, 0.39095497, 0
768, 227667547, 0.7830673, -0.27320656, -0.46805233, -0.30510816, 0.012565899, -0.14080176, 0.4827385, 0
769, 227684214, 0.7829012, -0.2723842, -0.4686525, -0.30534834, 0.009974042, -0.1492025, 0.47056103, 0
770, 227700881, 0.78301376, -0.27168778, -0.46882847, -0.3054102, -0.027997456, -0.08280909, 0.40777874, 0
771, 227717548, 0.7830882, -0.27107516, -0.4689881, -0.3055186, -0.11517533, 0.019640306, 0.21851635, 0
772, 227734215, 0.7829116, -0.27059916, -0.4693789, -0.3057923, -0.07956033, 0.07060283, 0.096037865, 0
773, 227750882, 0.7824805, -0.27015808, -0.4701136, -0.30615714, -0.0603742, 0.042784628, 0.06641388, 0
774, 227767549, 0.78205365, -0.26965138, -0.47089887, -0.30648765, 0.014136077, -0.042983778, 0.28630066, 0
775, 227784216, 0.78209835, -0.2690042, -0.4710445, -0.30671877, 0.09862822, -0.1035587, 0.5880804, 0
776, 227800883, 0.7826308, -0.26817185, -0.47056535, -0.30682442, -0.042002108, -0.071547166, 0.71303177, 0
777, 227817550, 0.7833817, -0.26746917, -0.46968, -0.3068783, -0.073007375, 0.03223012, 0.72637844, 0
778, 227834217, 0.78399795, -0.2670867, -0.4688625, -0.30688748, -0.14713076, 0.040104482, 0.53450775, 0
779, 227850884, 0.78415555, -0.26702157, -0.46860522, -0.3069343, -0.23894049, 0.05259774, 0.26490974, 0
780, 227867551, 0.7838981, -0.26708895, -0.4689353, -0.30702913, -0.18397173, 0.01790607, 0.15117931, 0
781, 227884218, 0.7835842, -0.2670648, -0.46937117, -0.30718562, -0.09035176, -0.037642486, 0.14342022, 0
782, 227900885, 0.7834824, -0.26674625, -0.46955752, -0.30743745, -0.028548192, -0.092440486, 0.029774666, 0
783, 227917552, 0.78353363, -0.26607245, -0.46958148, -0.30785418, -0.07003465, -0.1243948, -0.067495346, 0
784, 227934219, 0.7835847, -0.26518193, -0.4696348, -0.30841014, -0.04289884, -0.09778245, -0.019235611, 0
785, 227950886, 0.78352857, -0.26449338, -0.46985582, -0.30880696, 0.04149004, 0.032646302, 0.32214165, 0
786, 227967553, 0.7835537, -0.2643227, -0.4698935, -0.308832, 0.025521602, 0.08731422, 0.7765293, 0
787, 227984220, 0.78352463, -0.26450425, -0.47003752, -0.30853096, -0.28780243, 0.10000014, 0.9164858, 0
788, 228000887, 0.7832439, -0.2649038, -0.47057438, -0.30808228, -0.43529996, 0.14645083, 1.1080189, 0
789, 228017554, 0.7830302, -0.26573244, -0.47078112, -0.30759597, -0.4903396, 0.12245403, 1.9738417, 0
790, 228034221, 0.7833153, -0.26685017, -0.4700951, -0.3069507, -0.5376671, 0.07319401, 2.7270203, 0
791, 228050888, 0.7842628, -0.268348, -0.46826765, -0.30601773, -0.53306764, 0.15806769, 3.5017738, 0
792, 228067555, 0.7860303, -0.27057037, -0.4649571, -0.30457, -0.5557001, 0.2923451, 3.9385967, 0
793, 228084222, 0.7885057, -0.27386215, -0.4602576, -0.30235952, -0.55868137, 0.36055344, 3.968707, 0
794, 228100889, 0.7912552, -0.27827916, -0.45462373, -0.29965523, -0.60682917, 0.40827772, 3.6665297, 0
795, 228117556, 0.7935172, -0.2835812, -0.449178, -0.2969031, -0.7622838, 0.4194536, 3.1973228, 0
796, 228134223, 0.79494727, -0.28947437, -0.44452545, -0.2943824, -0.68500865, 0.36027965, 2.9515266, 0
797, 228150890, 0.79575014, -0.29573184, -0.44059286, -0.29189515, -0.38324782, 0.30387503, 2.8671904, 0
798, 228167557, 0.79668975, -0.30218077, -0.43626004, -0.2892218, 0.049323946, 0.14813188, 3.0114346, 0
799, 228184224, 0.7983923, -0.30855232, -0.4306599, -0.28617713, 0.4185772, 0.014234199, 2.9708052, 0
800, 228200891, 0.80126214, -0.31464654, -0.42323768, -0.28257123, 0.7925765, -0.06834937, 3.034793, 0
801, 228217558, 0.8056369, -0.32054836, -0.4132619, -0.27823144, 1.0975804, -0.06307513, 2.716115, 0
802, 228234225, 0.81098664, -0.32636157, -0.4015207, -0.27307555, 1.1174841, 0.006752103, 1.9161644, 0
803, 228250892, 0.8163579, -0.332191, -0.3894137, -0.2675181, 1.0577719, 0.05537578, 1.0274391, 0
804, 228267559, 0.8212963, -0.33823237, -0.3775014, -0.26184747, 1.1221313, 0.030799638, 0.29954338, 0
805, 228284226, 0.8256871, -0.3443795, -0.36602664, -0.25625864, 1.1152731, -0.08534954, -0.1860094, 0
806, 228300893, 0.829552, -0.3502364, -0.35525116, -0.25094807, 1.050178, -0.20363997, -0.5830002, 0
807, 228317560, 0.8330916, -0.35558227, -0.34506354, -0.2458675, 1.1865364, -0.25859198, -0.7862234, 0
808, 228334227, 0.83675206, -0.36052108, -0.3346677, -0.24055839, 1.4024891, -0.27552822, -0.85056496, 0
809, 228350894, 0.84059125, -0.3651165, -0.32395327, -0.23484203, 1.4742362, -0.2026297, -1.0581045, 0
810, 228367561, 0.84445, -0.36951524, -0.31306836, -0.22880389, 1.3741319, -0.15397696, -1.2093735, 0
811, 228384228, 0.84827214, -0.3736257, -0.30230492, -0.22237352, 1.0524787, -0.13438784, -1.3148823, 0
812, 228400895, 0.85181475, -0.37759307, -0.29187685, -0.21597002, 1.12133, -0.05881967, -1.5314913, 0
813, 228417562, 0.85489434, -0.38170603, -0.28146225, -0.21032168, 1.259238, -0.047783718, -1.7432461, 0
814, 228434229, 0.8576531, -0.38580668, -0.27098414, -0.20530978, 1.1469619, -0.14950201, -1.8676882, 0
815, 228450896, 0.8603228, -0.38966703, -0.26042482, -0.2004582, 0.87900394, -0.26007944, -1.9359937, 0
816, 228467563, 0.86295485, -0.3928578, -0.25047207, -0.19553934, 0.49360913, -0.26871622, -1.8798833, 0
817, 228484230, 0.8654953, -0.39525968, -0.24172324, -0.19041468, 0.060263675, -0.21653868, -1.8562365, 0
818, 228500897, 0.8676503, -0.39713404, -0.23488356, -0.18519568, -0.08265085, -0.06580289, -1.8321085, 0
819, 228517564, 0.8693535, -0.39910662, -0.22925699, -0.17994374, -0.011865633, 0.036876284, -1.8752465, 0
820, 228534231, 0.8707787, -0.4012544, -0.22395848, -0.1748774, 0.078609616, -0.046472814, -1.7628393, 0
821, 228550898, 0.8722674, -0.4033866, -0.21799426, -0.17002194, 0.15636262, -0.150867, -1.6365051, 0
822, 228567565, 0.8740089, -0.40535155, -0.21078989, -0.16542816, 0.05796719, -0.21039721, -1.5524263, 0
823, 228584232, 0.87589335, -0.40697, -0.20291033, -0.16128758, -0.271376, -0.18905643, -1.4726772, 0
824, 228600899, 0.87769383, -0.4082946, -0.19529286, -0.1575117, -0.6549057, -0.095828496, -1.4681559, 0
825, 228617566, 0.87921786, -0.40942463, -0.18894894, -0.15377225, -1.0824397, -0.007984553, -1.386261, 0
826, 228634233, 0.88030565, -0.41056287, -0.18429948, -0.15011285, -1.0453515, 0.074025035, -1.2661562, 0
827, 228650900, 0.8810144, -0.41193545, -0.1805488, -0.14671344, -0.8389487, 0.06471259, -1.1791534, 0
828, 228667567, 0.8815107, -0.41353798, -0.1768144, -0.1437432, -0.67746705, 0.019224796, -1.0503016, 0
829, 228684234, 0.8818048, -0.41526785, -0.17305765, -0.14150709, -0.8271146, -0.035619695, -0.89181805, 0
830, 228700901, 0.8819592, -0.41694942, -0.16963406, -0.13973415, -0.92611295, -0.07032545, -0.7404814, 0
831, 228717568, 0.8820354, -0.41845143, -0.1669354, -0.13800274, -0.9496916, -0.06267281, -0.6548424, 0
832, 228734235, 0.88200617, -0.41965088, -0.16553669, -0.13621967, -1.1164804, -0.047734767, -0.51384544, 0
833, 228750902, 0.8818756, -0.420572, -0.16536014, -0.13442673, -0.8560062, -0.055491563, -0.3561077, 0
834, 228767569, 0.8817465, -0.4213484, -0.16550417, -0.13265362, -0.5917993, -0.035865784, -0.35909653, 0
835, 228784236, 0.88162136, -0.42221123, -0.16530319, -0.13098235, -0.26369557, 0.02396193, -0.35095978, 0
836, 228800903, 0.88156646, -0.42325523, -0.1640932, -0.12949592, -0.16395089, 0.01794988, -0.21576405, 0
837, 228817570, 0.8815473, -0.4243635, -0.16229746, -0.12825637, -0.44175783, 0.05075398, -0.16581535, 0
838, 228834237, 0.8814138, -0.42535248, -0.16116361, -0.12732342, -0.8028557, 0.059102636, -0.082816124, 0
839, 228850904, 0.88108563, -0.42609343, -0.16151778, -0.12666702, -0.943311, 0.042420078, -0.07958794, 0
840, 228867571, 0.88060814, -0.4265431, -0.16320781, -0.12630671, -0.74510187, -0.062122073, -0.15595531, 0
841, 228884238, 0.88014513, -0.4266639, -0.16535497, -0.12633355, -0.3705122, -0.15760949, -0.14199638, 0
842, 228900905, 0.8798417, -0.42662638, -0.16675389, -0.12673497, 0.053238776, -0.11158728, -0.1841135, 0
843, 228917572, 0.879756, -0.42678943, -0.16644919, -0.12718175, 0.2935493, 0.006610396, -0.25632477, 0
844, 228934239, 0.8797553, -0.42716658, -0.16513196, -0.12763633, -0.07582241, 0.045093514, -0.2276783, 0
845, 228950906, 0.879738, -0.42761877, -0.1637038, -0.12808037, -0.26123413, 0.020644551, -0.15560532, 0
846, 228967573, 0.8797251, -0.42803028, -0.16235454, -0.12851092, -0.30764112, -0.101779975, -0.29303646, 0
847, 228984240, 0.879685, -0.42812508, -0.16179597, -0.12917177, -0.5134848, -0.22759967, -0.33987427, 0
848, 229000907, 0.8796106, -0.42767012, -0.16255103, -0.13023399, -0.592534, -0.25032556, -0.2783451, 0
849, 229017574, 0.87953514, -0.4267023, -0.16435498, -0.13164634, -0.4879052, -0.21161088, -0.30756092, 0
850, 229034241, 0.8794666, -0.42544886, -0.16670516, -0.13319744, -0.35830837, -0.12941356, -0.44752884, 0
851, 229050908, 0.8793089, -0.42428258, -0.16912001, -0.13490228, -0.36246973, -0.11993504, -0.651289, 0
852, 229067575, 0.8789929, -0.42331108, -0.17169887, -0.13674308, -0.65500444, -0.15812469, -0.8902302, 0
853, 229084242, 0.8785077, -0.4222896, -0.17506064, -0.1387432, -0.9117121, -0.3035932, -1.0605421, 0
854, 229100909, 0.8779743, -0.42081475, -0.17940378, -0.14103363, -0.97800887, -0.46317047, -1.11759, 0
855, 229117576, 0.87745994, -0.41878513, -0.1844189, -0.14378005, -0.9011137, -0.40435305, -1.2419224, 0
856, 229134243, 0.8769503, -0.41630566, -0.18996182, -0.1468409, -0.81074727, -0.26590577, -1.3716145, 0
857, 229150910, 0.87640023, -0.41368964, -0.19560528, -0.1500736, -0.643597, -0.17593151, -1.4020367, 0
858, 229167577, 0.87583816, -0.41101897, -0.20098278, -0.15354753, -0.5164934, -0.14188692, -1.3158665, 0
859, 229184244, 0.8752363, -0.40825015, -0.20631336, -0.15725125, -0.6056364, -0.09945589, -1.3958635, 0
860, 229200911, 0.87450397, -0.40539584, -0.2120585, -0.16102307, -0.64059716, -0.13652551, -1.4397469, 0
861, 229217578, 0.8735835, -0.40233323, -0.21844964, -0.16510591, -0.49238417, -0.15019736, -1.3954496, 0
862, 229234245, 0.8725737, -0.3987783, -0.22529934, -0.16979857, -0.27941555, -0.23907147, -1.0997772, 0
863, 229250912, 0.8715615, -0.39458764, -0.23243068, -0.17509225, -0.28878745, -0.1726242, -1.020093, 0
864, 229267579, 0.8701789, -0.39017096, -0.24059632, -0.18074526, -0.37480453, 0.048190065, -1.2559938, 0
865, 229284246, 0.86791945, -0.3862995, -0.25037923, -0.18654463, -0.3694828, 0.2937034, -1.6979876, 0
866, 229300913, 0.8645244, -0.38315624, -0.26233694, -0.19227155, -0.20401034, 0.27980402, -1.850255, 0
867, 229317580, 0.8604155, -0.3803277, -0.27538848, -0.19798326, 0.25961053, 0.047487117, -1.4461107, 0
868, 229334247, 0.8564339, -0.37701246, -0.28777188, -0.20388754, 0.87866586, -0.18503207, -0.7048874, 0
869, 229350914, 0.8535052, -0.3730467, -0.2972705, -0.20975089, 1.3773261, -0.18059959, -0.16712189, 0
870, 229367581, 0.8514936, -0.368928, -0.30406103, -0.21540132, 1.0624243, 0.013084002, -0.39456558, 0
871, 229384248, 0.8494263, -0.36517614, -0.31037542, -0.2208816, 0.5159426, 0.22114685, -0.7973938, 0
872, 229400915, 0.84641975, -0.36177167, -0.31859884, -0.22625148, -0.024241097, 0.2797734, -0.9368944, 0
873, 229417582, 0.8423593, -0.3583813, -0.32910544, -0.23169723, 0.18013468, 0.17969301, -0.4502697, 0
874, 229434249, 0.83781385, -0.35486054, -0.34038994, -0.23722732, 0.6892031, 0.04354457, -0.042902946, 0
875, 229450916, 0.83340824, -0.3513301, -0.35089305, -0.2426362, 1.1150634, -0.03161412, 0.37094402, 0
876, 229467583, 0.8296709, -0.34777483, -0.35943004, -0.24800988, 1.1669806, -0.09504218, 0.8138275, 0
877, 229484250, 0.8264412, -0.3443619, -0.36638346, -0.25332382, 0.87758136, 0.16685532, 0.6170893, 0
878, 229500917, 0.8231704, -0.34172052, -0.37275755, -0.25820404, 0.74789405, 0.46603256, 0.28372097, 0
879, 229517584, 0.8190463, -0.3398324, -0.38029975, -0.26277205, 0.40696478, 0.41777566, 0.026855469, 0
880, 229534251, 0.8137132, -0.33798665, -0.38996744, -0.26750946, 0.42527363, 0.15345415, 0.49956608, 0
881, 229550918, 0.8081835, -0.33557853, -0.4001345, -0.27224812, 0.70841336, -0.19668514, 1.3446817, 0
882, 229567585, 0.8038186, -0.33264905, -0.40861842, -0.27613646, 1.1035168, -0.28767502, 2.010357, 0
883, 229584252, 0.80135053, -0.3296274, -0.41413417, -0.27870446, 1.1057836, -0.21899733, 2.14011, 0
884, 229600919, 0.79984134, -0.32695156, -0.41794556, -0.28049648, 0.8526977, -0.012171174, 1.6664267, 0
885, 229617586, 0.7982683, -0.32490465, -0.4212068, -0.28247038, 0.59305966, 0.06846761, 1.249733, 0
886, 229634253, 0.7958516, -0.32315108, -0.4254101, -0.28499115, 0.27207562, 0.026234386, 0.9806576, 0
887, 229650920, 0.7925236, -0.32125756, -0.43101653, -0.28796664, 0.14223894, -0.069275156, 1.1487303, 0
888, 229667587, 0.78906715, -0.3192197, -0.43702096, -0.29066247, 0.3555282, -0.12960488, 1.5322857, 0
889, 229684254, 0.7863226, -0.31726432, -0.44211972, -0.29252437, 0.5293198, -0.15968682, 1.8990135, 0
890, 229700921, 0.7846412, -0.31540397, -0.44576308, -0.29352, 0.44337907, -0.20263886, 2.005334, 0
891, 229717588, 0.7839345, -0.31342095, -0.44797924, -0.29415816, 0.26817217, -0.1921275, 1.9164095, 0
892, 229734255, 0.7837326, -0.3111998, -0.44943178, -0.2948378, -0.033776384, -0.10412351, 1.4295597, 0
893, 229750922, 0.7831236, -0.3088222, -0.45161393, -0.29562044, -0.35574323, 0.09425094, 0.8562031, 0
894, 229767589, 0.7816205, -0.30642402, -0.45513344, -0.29669404, -0.32662842, 0.19325422, 0.76963806, 0
895, 229784256, 0.7799054, -0.30403426, -0.45888278, -0.29788816, -0.08898766, 0.1497159, 1.1812267, 0
896, 229800923, 0.77883554, -0.3016801, -0.46159065, -0.2988954, 0.037406683, 0.13799913, 1.4200268, 0
897, 229817590, 0.77825195, -0.29940236, -0.4634467, -0.2998323, -0.097449414, 0.19951147, 1.1845484, 0
898, 229834257, 0.77759105, -0.29729617, -0.46531543, -0.30074722, -0.2800255, 0.25490737, 0.8252802, 0
899, 229850924, 0.77661085, -0.29540792, -0.46758085, -0.30162573, -0.25298226, 0.22977333, 0.58557034, 0
900, 229867591, 0.7755582, -0.29361632, -0.4698356, -0.30257848, -0.095315315, 0.10110966, 0.73328876, 0
901, 229884258, 0.7748354, -0.29175314, -0.47155184, -0.30356076, -0.08549058, -0.008762155, 0.7566862, 0
902, 229900925, 0.77446264, -0.2898903, -0.47273394, -0.3044568, -0.13999644, 0.034531634, 0.5949993, 0
903, 229917592, 0.77409995, -0.28809935, -0.47385338, -0.3053377, -0.18788812, 0.0292422, 0.3738575, 0
904, 229934259, 0.77353007, -0.28632268, -0.47521645, -0.3063332, -0.21398057, 0.034881655, 0.29293346, 0
905, 229950926, 0.77277017, -0.28463504, -0.47682035, -0.3073302, -0.09390628, 0.07491618, 0.31820393, 0
906, 229967593, 0.7721097, -0.28329554, -0.47818497, -0.3081063, 0.057852305, 0.10714742, 0.41900444, 0
907, 229984260, 0.77158827, -0.2821916, -0.4792619, -0.30875185, -0.031016447, 0.026178284, 0.43177414, 0
908, 230000927, 0.77109677, -0.28109583, -0.48026186, -0.30942476, -0.09418702, -0.02849835, 0.33950233, 0
909, 230017594, 0.7707292, -0.2799938, -0.48104632, -0.3101207, -0.02872365, -0.0023421922, 0.3302784, 0
910, 230034261, 0.7705256, -0.27888077, -0.48152316, -0.31088874, -0.06053044, -0.024217404, 0.317235, 0
911, 230050928, 0.7703029, -0.27759385, -0.48202693, -0.3118097, -0.14751631, -0.028744884, 0.265481, 0
912, 230067595, 0.76997054, -0.2762016, -0.482719, -0.3127949, -0.16787991, -0.0057532233, 0.34414482, 0
913, 230084262, 0.769788, -0.27481028, -0.48325938, -0.3136344, -0.08771811, -0.051731404, 0.59535885, 0
914, 230100929, 0.7698906, -0.27338058, -0.48348257, -0.31428736, -0.1065826, -0.089039065, 0.74941444, 0
915, 230117596, 0.7701687, -0.27197942, -0.48346922, -0.31484157, -0.07737885, -0.07485471, 0.8015766, 0
916, 230134263, 0.7704954, -0.27100372, -0.4832674, -0.315193, -0.008237793, 0.028827136, 0.76587677, 0
917, 230150930, 0.7707634, -0.27079347, -0.4830254, -0.31508905, -0.013325395, 0.04435704, 0.82969475, 0
918, 230167597, 0.77099216, -0.2710857, -0.48261747, -0.31490308, -0.19751504, -0.083553836, 0.6017761, 0
919, 230184264, 0.7709, -0.27135646, -0.48264536, -0.31485292, -0.30811194, -0.051747274, -0.010057449, 0
920, 230200931, 0.77061284, -0.27146906, -0.48300484, -0.31490776, -0.11099542, -0.008332339, -0.17263794, 0
921, 230217598, 0.77035373, -0.27132544, -0.48337594, -0.31509602, -0.058644213, 0.0047118766, -0.26236248, 0
922, 230234265, 0.77012664, -0.27082247, -0.48377997, -0.31546396, -0.04687156, 0.008979857, -0.20813656, 0
923, 230250932, 0.76994354, -0.27012298, -0.48417178, -0.3159087, 0.054716196, -0.03826564, -7.352829E-4, 0
924, 230267599, 0.76988715, -0.26953313, -0.48438728, -0.31621957, 0.18179381, -0.032558464, 0.37124443, 0
925, 230284266, 0.77004355, -0.26926205, -0.48424283, -0.3162912, 0.19181167, -0.014747385, 0.5531435, 0
926, 230300933, 0.77030486, -0.2692857, -0.4838893, -0.31617534, 0.071646184, 0.012716099, 0.3646183, 0
927, 230317600, 0.7704561, -0.2693627, -0.48366952, -0.31607753, -0.119374245, 0.033065166, 0.069895744, 0
928, 230334267, 0.7704293, -0.26931974, -0.48374873, -0.31605798, -0.1841749, 0.03957051, -0.040395737, 0
929, 230350934, 0.77018034, -0.26929605, -0.4841612, -0.31605336, -0.14318508, 0.11024129, 0.12141514, 0
930, 230367601, 0.7698135, -0.26949733, -0.48468494, -0.31597316, -0.06664307, 0.1679644, 0.37126446, 0
931, 230384268, 0.7694738, -0.26989695, -0.48501346, -0.31595555, -0.18375537, 0.13047591, 0.83248234, 0
932, 230400935, 0.7692407, -0.27036497, -0.48510894, -0.31597596, -0.36507934, 0.12161854, 1.3334322, 0
933, 230417602, 0.7695088, -0.2710187, -0.48447666, -0.3157333, -0.5373462, 0.10119527, 2.3589706, 0
934, 230434269, 0.7705273, -0.27189246, -0.48279572, -0.31507233, -0.7278695, 0.093541734, 3.2742844, 0
935, 230450936, 0.7722717, -0.27316156, -0.48001063, -0.31395748, -0.7935412, 0.18049945, 3.815215, 0
936, 230467603, 0.7741673, -0.2753555, -0.4766802, -0.31244302, -0.86075956, 0.3452426, 3.7761984, 0
937, 230484270, 0.7755682, -0.27893013, -0.47356224, -0.31053346, -0.8113775, 0.44108382, 3.5513115, 0
938, 230500937, 0.776354, -0.28396967, -0.470756, -0.3082605, -0.62743974, 0.30554333, 3.536025, 0
939, 230517604, 0.77684855, -0.28988466, -0.46807677, -0.30557725, -0.39963177, 0.08427757, 3.6968985, 0
940, 230534271, 0.7779174, -0.29611105, -0.46442023, -0.30245164, -0.089753866, -0.07717835, 3.981369, 0
941, 230550938, 0.7801504, -0.302558, -0.45893168, -0.29867324, 0.32724577, -0.049403515, 3.7131796, 0
942, 230567605, 0.7834607, -0.3093245, -0.45161328, -0.29419917, 0.5565155, 0.079731986, 3.2103577, 0
943, 230584272, 0.78730685, -0.31632867, -0.4432554, -0.28915232, 0.6669148, 0.14080176, 2.4920826, 0
944, 230600939, 0.7912163, -0.32340714, -0.4346248, -0.28370035, 0.7598962, 0.16533878, 1.8418579, 0
945, 230617606, 0.7950048, -0.33037162, -0.42599952, -0.2781123, 0.9504209, 0.10072924, 1.2614841, 0
946, 230634273, 0.79873246, -0.33702496, -0.41730267, -0.27257887, 1.1683849, -0.0610282, 0.7285347, 0
947, 230650940, 0.8026537, -0.3430108, -0.4083036, -0.2671685, 1.3004351, -0.23966959, 0.36625957, 0
948, 230667607, 0.8072391, -0.34836626, -0.3982205, -0.2615849, 1.476918, -0.24264902, 0.06872463, 0
949, 230684274, 0.81260407, -0.3532675, -0.38680628, -0.2554561, 1.5027649, -0.12327723, -0.30667877, 0
950, 230700941, 0.818221, -0.35781646, -0.3748338, -0.2489613, 1.2877587, -0.06887194, -0.6569061, 0
951, 230717608, 0.8235227, -0.3618473, -0.3633093, -0.24265935, 0.9970678, -0.0010773324, -0.911314, 0
952, 230734275, 0.8283362, -0.36567724, -0.35241815, -0.23651832, 0.9813327, 0.084399834, -1.1641026, 0
953, 230750942, 0.83276135, -0.3695039, -0.3419334, -0.23034124, 1.0539511, 0.110436186, -1.3201952, 0
954, 230767609, 0.8369969, -0.37340307, -0.33129728, -0.224162, 0.8862807, -0.040458526, -1.4833956, 0
955, 230784276, 0.8410578, -0.37684107, -0.3210183, -0.21808271, 0.51433104, -0.25505847, -1.6029091, 0
956, 230800943, 0.84488165, -0.3795958, -0.31138968, -0.2124119, 0.52580506, -0.2956779, -1.5186148, 0
957, 230817610, 0.8486041, -0.3817613, -0.30187994, -0.2073597, 0.7181131, -0.19916211, -1.3351345, 0
958, 230834277, 0.8521948, -0.3834358, -0.29265618, -0.2027161, 0.56091803, -0.0770286, -1.3233414, 0
959, 230850944, 0.8555834, -0.3847942, -0.284017, -0.19810335, 0.26156133, 0.003174778, -1.4281559, 0
960, 230867611, 0.85857356, -0.38609198, -0.27643546, -0.19330823, 0.053850528, 0.123208165, -1.5889072, 0
961, 230884278, 0.8610514, -0.3875418, -0.27002203, -0.18838869, -0.021217639, 0.17131262, -1.5479631, 0
962, 230900945, 0.8631994, -0.38913414, -0.2641752, -0.18350163, 0.13757826, 0.09705268, -1.3233271, 0
963, 230917612, 0.86523443, -0.39089486, -0.2578861, -0.17906764, 0.49804163, 0.06386436, -1.1839552, 0
964, 230934279, 0.86733586, -0.39281642, -0.25050524, -0.17513065, 0.37585446, 0.0068428493, -1.2370062, 0
965, 230950946, 0.8694902, -0.3946871, -0.24263337, -0.17128365, -0.08289492, 0.004838385, -1.1552591, 0
966, 230967613, 0.8714176, -0.39641124, -0.23547274, -0.16745822, -0.4716594, 0.16457796, -1.2438946, 0
967, 230984280, 0.8728743, -0.39837998, -0.22943634, -0.16353284, -0.5863675, 0.21948726, -1.3885708, 0
968, 231000947, 0.87391394, -0.40072185, -0.22428602, -0.15935063, -0.45611742, 0.12096588, -1.2673702, 0
969, 231017614, 0.87476194, -0.4033208, -0.21915141, -0.15523085, -0.22162193, -0.03893372, -1.0716362, 0
970, 231034281, 0.87566584, -0.40591264, -0.21334642, -0.15141915, -0.015943067, -0.14725928, -0.9036789, 0
971, 231050948, 0.8766313, -0.4082523, -0.2071383, -0.14812666, -0.2560951, -0.14032635, -0.8652649, 0
972, 231067615, 0.8774932, -0.41023886, -0.20148602, -0.145304, -0.5439465, -0.09772009, -0.8525448, 0
973, 231084282, 0.8780835, -0.41203555, -0.19694073, -0.14286597, -0.66505504, -0.059086766, -0.8877678, 0
974, 231100949, 0.8783305, -0.41375566, -0.19378695, -0.14067176, -0.7296146, -0.10192526, -0.9473028, 0
975, 231117616, 0.87837833, -0.41549337, -0.19145826, -0.13842323, -0.51426655, -0.17333028, -0.91265965, 0
976, 231134283, 0.8783979, -0.41727117, -0.18917236, -0.13607316, -0.22203107, -0.14587507, -0.7308817, 0
977, 231150950, 0.8785377, -0.4190529, -0.18617992, -0.1338039, -0.034333937, -0.1611591, -0.5047426, 0
978, 231167617, 0.87879395, -0.42072746, -0.18263043, -0.13174249, -0.2611427, -0.1577863, -0.41655636, 0
979, 231184284, 0.8790424, -0.42222822, -0.17921755, -0.12995814, -0.5637712, -0.07537818, -0.40686798, 0
980, 231200951, 0.8791352, -0.42363948, -0.1765949, -0.12831785, -0.8185545, -0.016652834, -0.39816093, 0
981, 231217618, 0.87899864, -0.4250462, -0.17502257, -0.12674655, -0.8386515, -0.037895057, -0.39682102, 0
982, 231234285, 0.8786758, -0.42646882, -0.1741385, -0.12541571, -0.6659511, -0.117133304, -0.41225624, 0
983, 231250952, 0.87833923, -0.42773744, -0.17337464, -0.1245081, -0.5771236, -0.23141123, -0.42345142, 0
984, 231267619, 0.8780216, -0.42862874, -0.17300397, -0.12419854, -0.7697502, -0.29471323, -0.5740366, 0
985, 231284286, 0.87767875, -0.42909583, -0.17342378, -0.12442315, -0.9326482, -0.3471838, -0.6139965, 0
986, 231300953, 0.8774216, -0.42916045, -0.1742294, -0.12488768, -0.7640559, -0.32502225, -0.61099815, 0
987, 231317620, 0.8773293, -0.42905498, -0.17466691, -0.12528647, -0.55297595, -0.19049764, -0.58251, 0
988, 231334287, 0.87733525, -0.42892432, -0.17462836, -0.12574507, -0.59960616, -0.13807379, -0.5091877, 0
989, 231350954, 0.87726307, -0.42867652, -0.17499559, -0.12658097, -1.0008577, -0.16203617, -0.52813244, 0
990, 231367621, 0.87699926, -0.42818928, -0.17654616, -0.1278984, -1.3234465, -0.22620942, -0.65103817, 0
991, 231384288, 0.87646854, -0.4273655, -0.1798729, -0.1296439, -1.4121197, -0.2617111, -0.9027977, 0
992, 231400955, 0.8757181, -0.42621475, -0.18455096, -0.13190947, -1.2164453, -0.3750022, -1.0724344, 0
993, 231417622, 0.8749481, -0.42441767, -0.19018815, -0.13477439, -1.0186297, -0.4712907, -0.99872494, 0
994, 231434289, 0.87441194, -0.42196634, -0.19547822, -0.13833517, -0.5757869, -0.3829879, -0.8751211, 0
995, 231450956, 0.8741751, -0.41918048, -0.19956152, -0.14241193, -0.3718965, -0.19616681, -0.9723072, 0
996, 231467623, 0.87392116, -0.41650745, -0.20306207, -0.14679642, -0.7784032, -0.020583084, -1.2218647, 0
997, 231484290, 0.87335694, -0.4138982, -0.20754148, -0.1512038, -1.1117405, -0.04337068, -1.2511873, 0
998, 231500957, 0.8725022, -0.41103315, -0.21335496, -0.15579258, -1.077411, -0.12574907, -1.1440582, 0
999, 231517624, 0.8713448, -0.40761986, -0.22069754, -0.16092522, -0.8937628, -0.123217106, -1.103344, 0
1000, 231534291, 0.8697868, -0.40393224, -0.22933164, -0.16648345, -0.625959, 0.03866707, -1.1076622, 0
1001, 231550958, 0.86787903, -0.4003554, -0.23853442, -0.17205556, -0.1567465, 0.17132245, -0.89457226, 0
1002, 231567625, 0.8657999, -0.39721388, -0.24713677, -0.17758106, 0.36226556, 0.28832835, -0.65523815, 0
1003, 231584292, 0.86362576, -0.39471075, -0.25469545, -0.1829874, 0.5177863, 0.26868963, -0.6979933, 0
1004, 231600959, 0.86128664, -0.39279845, -0.26165724, -0.18822996, 0.36348662, 0.14904223, -0.9390583, 0
1005, 231617626, 0.8587874, -0.3910044, -0.26872784, -0.19335301, 0.16720513, -0.10952627, -1.0594025, 0
1006, 231634293, 0.85626036, -0.3885729, -0.27637753, -0.19860691, 0.17157927, -0.31972566, -0.8459616, 0
1007, 231650960, 0.85416186, -0.3849466, -0.2837633, -0.20421048, 0.5705488, -0.39386827, -0.24557304, 0
1008, 231667627, 0.85262096, -0.3804511, -0.290131, -0.21004348, 0.77692544, -0.18680543, -0.23618126, 0
1009, 231684294, 0.8511234, -0.37608427, -0.29600364, -0.21571173, 0.73313767, 0.10772162, -0.611887, 0
1010, 231700961, 0.8491937, -0.3725856, -0.30222985, -0.2206978, 0.48010606, 0.18664427, -1.0086346, 0
1011, 231717628, 0.84662867, -0.3697557, -0.30954954, -0.22512214, 0.41185212, 0.05714958, -0.85437965, 0
1012, 231734295, 0.84378433, -0.36682487, -0.31749558, -0.22948678, 0.54037565, -0.15794252, -0.30223656, 0
1013, 231750962, 0.841117, -0.36316168, -0.32533678, -0.23407683, 0.67148435, -0.19417554, 0.07015896, 0
1014, 231767629, 0.8385934, -0.3589628, -0.3328444, -0.23900066, 0.69150615, -0.009314455, -0.007411003, 0
1015, 231784296, 0.8358464, -0.35494995, -0.3404225, -0.24389325, 0.51681626, 0.19117779, -0.5389681, 0
1016, 231800963, 0.83231837, -0.3516543, -0.34904122, -0.24850693, 0.45750576, 0.3122114, -0.91989326, 0
1017, 231817630, 0.8281131, -0.34895384, -0.35841998, -0.2529727, 0.6119995, 0.12746228, -0.67751026, 0
1018, 231834297, 0.8240781, -0.34607595, -0.3672646, -0.25737807, 0.8973019, -0.22271904, 0.27676773, 0
1019, 231850964, 0.82113916, -0.34246725, -0.37417752, -0.26160625, 0.99991584, -0.29146245, 0.8598013, 0
1020, 231867631, 0.819133, -0.3385863, -0.37942764, -0.2653589, 0.84237856, -0.0731359, 0.54833317, 0
1021, 231884298, 0.817369, -0.33513537, -0.3839566, -0.26864433, 0.5941743, 0.13772286, 0.12631416, 0
1022, 231900965, 0.81482595, -0.332197, -0.38951412, -0.2719978, 0.28389654, 0.22402234, -0.21760845, 0
1023, 231917632, 0.8114668, -0.32911006, -0.39634284, -0.27589965, 0.15738374, -0.006653981, 0.3181572, 0
1024, 231934299, 0.8078595, -0.3253331, -0.4038381, -0.28006527, 0.25643685, -0.10281149, 0.68059444, 0
1025, 231950966, 0.8042674, -0.3214221, -0.41125983, -0.2840905, 0.6270855, 0.079600565, 0.7458849, 0
1026, 231967633, 0.80097353, -0.3181847, -0.4177756, -0.28751257, 0.8491608, 0.19909103, 0.90716934, 0
1027, 231984300, 0.79815894, -0.31564054, -0.4231815, -0.2902258, 0.71915984, 0.12993993, 1.2841749, 0
1028, 232000967, 0.7961123, -0.31334746, -0.42714792, -0.29251248, 0.5491722, -0.021747587, 1.61098, 0
1029, 232017634, 0.794694, -0.31087157, -0.43014416, -0.29461247, 0.22627826, -0.048886083, 1.3949604, 0
1030, 232034301, 0.7929747, -0.30826735, -0.4336035, -0.29690158, -0.09856787, 0.14808047, 0.8607502, 0
1031, 232050968, 0.79042715, -0.3059889, -0.43821597, -0.29927012, -0.05253739, 0.30221432, 0.6543751, 0
1032, 232067635, 0.7875615, -0.30410463, -0.44314402, -0.30148077, 0.14418061, 0.20219429, 1.0001612, 0
1033, 232084302, 0.7848966, -0.30222052, -0.44760296, -0.30372968, 0.16899636, 0.00818795, 1.3464813, 0
1034, 232100969, 0.7826921, -0.2998699, -0.45128155, -0.3062945, -0.00908759, -0.08964121, 1.5054598, 0
1035, 232117636, 0.78092295, -0.29712272, -0.45435175, -0.3089366, -0.09466265, -0.008401852, 1.3688145, 0
1036, 232134303, 0.77921534, -0.2944625, -0.45726803, -0.3114831, -0.15791123, 0.18699585, 0.9669485, 0
1037, 232150970, 0.7768175, -0.2922701, -0.46105853, -0.31393924, -0.20749043, 0.37871745, 0.6373148, 0
1038, 232167637, 0.77385163, -0.29062146, -0.46539742, -0.31638297, -0.013139879, 0.31066042, 0.93128014, 0
1039, 232184304, 0.77102095, -0.28926215, -0.46935692, -0.31868207, 0.13840593, 0.13631742, 1.231122, 0
1040, 232200971, 0.7688575, -0.28795198, -0.47226617, -0.32079056, 0.1915059, 0.004604367, 1.3419094, 0
1041, 232217638, 0.7672805, -0.28660268, -0.4742734, -0.32280743, 0.10230456, -0.021351745, 1.189702, 0
1042, 232234305, 0.76608133, -0.28510746, -0.4758182, -0.32470036, -0.046313673, 0.0041522, 1.0146952, 0
1043, 232250972, 0.76494884, -0.28359112, -0.47734946, -0.32644624, -0.033669993, 0.13464287, 0.79093075, 0
1044, 232267639, 0.7636904, -0.28230453, -0.4790151, -0.32806373, -0.0044273445, 0.22954556, 0.65675926, 0
1045, 232284306, 0.7624436, -0.28128326, -0.4806124, -0.32950214, -0.077510715, 0.18423234, 0.7884226, 0
1046, 232300973, 0.7614244, -0.28042784, -0.48181376, -0.3308309, -0.1440845, 0.10828219, 0.92989063, 0
1047, 232317640, 0.7607399, -0.27967313, -0.4825334, -0.33199322, -0.1910848, 0.04489168, 0.9171877, 0
1048, 232334307, 0.76022786, -0.27893993, -0.48292813, -0.3332066, -0.21302707, 0.008674985, 0.82326317, 0
1049, 232350974, 0.7596134, -0.2782536, -0.48340344, -0.33449033, -0.18830788, 0.036357734, 0.5714636, 0
1050, 232367641, 0.75884247, -0.27767107, -0.48411348, -0.33569527, -0.09754687, -0.006186168, 0.37524128, 0
1051, 232384308, 0.75802875, -0.2770336, -0.4849439, -0.3368594, -0.005677453, -0.11331257, 0.4061985, 0
1052, 232400975, 0.7575268, -0.27623227, -0.48547235, -0.33788395, 0.023603415, -0.15733546, 0.5583639, 0
1053, 232417642, 0.7575716, -0.27541357, -0.48536503, -0.33860534, 0.094625995, -0.10628555, 0.6143513, 0
1054, 232434309, 0.7580896, -0.2746514, -0.48467317, -0.33905563, 0.024847489, -0.122076966, 0.59599304, 0
1055, 232450976, 0.7587132, -0.27390188, -0.4838889, -0.33938715, -0.12160781, -0.09473507, 0.455657, 0
1056, 232467643, 0.75919265, -0.27325004, -0.48331434, -0.3396589, -0.17526679, -0.036193453, 0.46089268, 0
1057, 232484310, 0.75954825, -0.27279016, -0.48295274, -0.3397481, -0.14758292, -0.08232585, 0.7581425, 0
1058, 232500977, 0.7599614, -0.27279255, -0.48248386, -0.33948842, -0.12563932, -0.13333978, 1.3375559, 0
1059, 232517644, 0.76044494, -0.2730493, -0.48186558, -0.33907723, -0.31081712, -0.25556716, 1.3132143, 0
1060, 232534311, 0.76101965, -0.27321753, -0.48109683, -0.33874393, -0.45826548, -0.1321878, 1.1200562, 0
1061, 232550978, 0.7617466, -0.27349702, -0.48020127, -0.33815438, -0.47744513, 0.050500292, 1.2112274, 0
1062, 232567645, 0.76269335, -0.2741913, -0.47886205, -0.33735636, -0.33826002, 0.1472291, 1.6599646, 0
1063, 232584312, 0.76384693, -0.27545145, -0.47695318, -0.33642277, -0.4620652, 0.16910923, 1.9224281, 0
1064, 232600979, 0.7650503, -0.2771793, -0.4748605, -0.33522752, -0.6378666, 0.1687572, 2.155222, 0
1065, 232617646, 0.76603526, -0.27929696, -0.47301966, -0.33381996, -0.68166846, 0.15534352, 2.3895168, 0
1066, 232634313, 0.7670229, -0.28176808, -0.47114605, -0.3321206, -0.5632692, 0.105403125, 2.8214617, 0
1067, 232650980, 0.7684348, -0.28457844, -0.4685323, -0.33015275, -0.38549325, 0.08775275, 3.2354317, 0
1068, 232667647, 0.7705207, -0.2877876, -0.46481344, -0.3277569, -0.31582916, 0.101415426, 3.3154488, 0
1069, 232684314, 0.7731271, -0.29152706, -0.46020055, -0.3248106, -0.24640962, 0.16709337, 3.2207632, 0
1070, 232700981, 0.77601933, -0.29584074, -0.4549915, -0.3213329, -0.20414065, 0.22824763, 3.0278025, 0
1071, 232717648, 0.77898675, -0.3006693, -0.44943637, -0.3174661, -0.046048585, 0.2571454, 2.7714863, 0
1072, 232734315, 0.7821088, -0.30592632, -0.4433138, -0.31334952, 0.12693882, 0.15680507, 2.5145245, 0
1073, 232750982, 0.78548425, -0.31128877, -0.43659124, -0.30903414, 0.22006951, 0.022577938, 2.238531, 0
1074, 232767649, 0.7891387, -0.31638002, -0.42930636, -0.30472967, 0.3621643, -0.09148408, 1.9329491, 0
1075, 232784316, 0.7930865, -0.32099172, -0.42162186, -0.30035537, 0.5745959, -0.16396172, 1.7435293, 0
1076, 232800983, 0.7975623, -0.3254427, -0.41310057, -0.29551575, 0.87818396, -0.075612865, 1.374116, 0
1077, 232817650, 0.8023293, -0.33016288, -0.40395617, -0.2899651, 1.01793, 0.032761186, 0.8169956, 0
1078, 232834317, 0.80701417, -0.33503616, -0.39477372, -0.28395927, 0.9446433, -0.010860941, 0.399148, 0
1079, 232850984, 0.81152064, -0.33973867, -0.38577485, -0.27783087, 0.9388362, -0.1444468, -0.0076265335, 0
1080, 232867651, 0.81601423, -0.3440412, -0.37676203, -0.27167463, 1.0795616, -0.2372181, -0.23249245, 0
1081, 232884318, 0.820644, -0.34772152, -0.36750925, -0.2656506, 1.2085757, -0.29272574, -0.3822279, 0
1082, 232900985, 0.825345, -0.3508934, -0.35799885, -0.25983897, 1.2476041, -0.23317364, -0.6889, 0
1083, 232917652, 0.8299882, -0.35382268, -0.34856698, -0.2538312, 1.1631304, -0.16766869, -1.0510292, 0
1084, 232934319, 0.83435196, -0.35670242, -0.33953667, -0.24765947, 1.0770357, -0.15223892, -1.2165365, 0
1085, 232950986, 0.8385778, -0.35933343, -0.3308531, -0.24125364, 1.02562, -0.23302053, -1.2031593, 0
1086, 232967653, 0.84281737, -0.36165312, -0.3222569, -0.23455629, 0.98943865, -0.16862711, -1.2522516, 0
1087, 232984320, 0.84692115, -0.36379892, -0.3139651, -0.22759804, 0.78042096, -0.03760203, -1.4512625, 0
1088, 233000987, 0.8505823, -0.36597782, -0.30656528, -0.22042659, 0.55460405, 0.08332876, -1.5933304, 0
1089, 233017654, 0.85374516, -0.3682999, -0.29994848, -0.21332024, 0.6442325, 0.03565054, -1.5672989, 0
1090, 233034321, 0.856841, -0.3706625, -0.2930228, -0.20632635, 0.83441633, -0.084129386, -1.2690582, 0
1091, 233050988, 0.86034536, -0.3729549, -0.28456515, -0.19933274, 1.0327029, -0.035503022, -1.1134577, 0
1092, 233067655, 0.8642123, -0.37533864, -0.27451992, -0.19208533, 0.7842354, 0.12416413, -1.2705507, 0
1093, 233084322, 0.8678834, -0.3778014, -0.26439947, -0.18476373, 0.22240523, 0.24242729, -1.3616982, 0
1094, 233100989, 0.8708919, -0.38038272, -0.2556379, -0.17749873, -0.34243727, 0.34794685, -1.4291105, 0
1095, 233117656, 0.87306017, -0.38320327, -0.24882641, -0.17031302, -0.4716347, 0.3535519, -1.3053846, 0
1096, 233134323, 0.87463063, -0.38612196, -0.2434053, -0.16335565, -0.24772288, 0.26323768, -1.065691, 0
1097, 233150990, 0.876079, -0.38903046, -0.23784472, -0.15675168, 0.06273338, 0.16878402, -0.81097794, 0
1098, 233167657, 0.8775556, -0.39197963, -0.23153932, -0.15045854, -9.5127115E-4, 0.2125445, -0.8964548, 0
1099, 233184324, 0.8788668, -0.39507535, -0.2249157, -0.14464341, -0.32379147, 0.23761976, -1.0820637, 0
1100, 233200991, 0.87988603, -0.3981587, -0.2187931, -0.13928379, -0.7402063, 0.14016475, -1.0533228, 0
1101, 233217658, 0.88057333, -0.40091684, -0.21394295, -0.13448067, -0.92573494, 0.05967863, -0.89571, 0
1102, 233234325, 0.880995, -0.40333003, -0.21018015, -0.1303733, -0.83289784, 0.014982074, -0.76246834, 0
1103, 233250992, 0.88129556, -0.40549144, -0.20698904, -0.12669063, -0.65516007, 0.03212306, -0.74971867, 0
1104, 233267659, 0.8815075, -0.40762377, -0.20386828, -0.12339009, -0.4896677, 0.049362835, -0.7430763, 0
1105, 233284326, 0.8815777, -0.40997037, -0.20051597, -0.12057644, -0.40412697, 0.03521469, -0.74693775, 0
1106, 233300993, 0.881567, -0.41243124, -0.19691364, -0.11817613, -0.4194253, -0.03946211, -0.70805264, 0
1107, 233317660, 0.8815333, -0.41462427, -0.19361787, -0.11618075, -0.71126616, -0.14827648, -0.52711105, 0
1108, 233334327, 0.8814958, -0.41635656, -0.19103801, -0.11452944, -0.8109439, -0.20517014, -0.45307922, 0
1109, 233350994, 0.88150054, -0.41762495, -0.1891113, -0.113062896, -0.6103469, -0.22798434, -0.5173769, 0
1110, 233367661, 0.8816164, -0.41856715, -0.18733439, -0.111625046, -0.46869025, -0.2231569, -0.5691376, 0
1111, 233384328, 0.88181907, -0.4193203, -0.18544666, -0.11034127, -0.4327364, -0.22998656, -0.6210232, 0
1112, 233400995, 0.8820703, -0.41987154, -0.1835117, -0.10946924, -0.47400448, -0.2801945, -0.5515728, 0
1113, 233417662, 0.8823873, -0.4200452, -0.18177603, -0.10914388, -0.5951806, -0.29322731, -0.39544964, 0
1114, 233434329, 0.88269556, -0.41980675, -0.18076111, -0.109254144, -0.69800436, -0.19500254, -0.3060856, 0
1115, 233450996, 0.8828591, -0.41950282, -0.18058392, -0.109393045, -0.7214652, -0.043124814, -0.31427097, 0
1116, 233467663, 0.8828157, -0.41942433, -0.18106653, -0.10924631, -0.5975644, -0.0270967, -0.37790108, 0
1117, 233484330, 0.8826672, -0.41958252, -0.18161945, -0.10892147, -0.37488207, -0.107887246, -0.35324, 0
1118, 233500997, 0.8825968, -0.419799, -0.18149135, -0.10886998, -0.17799008, -0.18471558, -0.21078205, 0
1119, 233517664, 0.8827081, -0.41984504, -0.18061917, -0.10924045, -0.28024545, -0.17914139, -0.078455925, 0
1120, 233534331, 0.8829029, -0.4197202, -0.17956105, -0.1098888, -0.48090512, -0.04608882, -0.08915806, 0
1121, 233550998, 0.8829944, -0.4194506, -0.17928573, -0.110629365, -0.7506613, 0.0033366014, -0.10387993, 0
1122, 233567665, 0.8827862, -0.4191466, -0.18041047, -0.11161076, -0.7729502, -0.004002223, -0.103752136, 0
1123, 233584332, 0.8823286, -0.41896036, -0.18240479, -0.112681516, -0.3710572, -0.028274836, -0.12600327, 0
1124, 233600999, 0.88187766, -0.4189719, -0.18392207, -0.11369801, 0.13030347, -0.07631917, 0.009714127, 0
1125, 233617666, 0.8816148, -0.41899353, -0.18442072, -0.11484355, 0.20989364, -0.07407443, 0.13937569, 0
1126, 233634333, 0.8814488, -0.4188747, -0.18464899, -0.11617624, -0.16926782, -0.036805432, 0.11536121, 0
1127, 233651000, 0.88119334, -0.41855997, -0.18567887, -0.11759868, -0.58794993, -0.09409337, 0.009578705, 0
1128, 233667667, 0.880738, -0.418017, -0.18813555, -0.119027235, -0.59510684, -0.14439608, -0.09740257, 0
1129, 233684334, 0.88010025, -0.41737387, -0.19157529, -0.120506346, -0.473789, -0.2003141, -0.26160145, 0
1130, 233701001, 0.87940335, -0.41657588, -0.19546121, -0.12210482, -0.23401862, -0.25063133, -0.21527672, 0
1131, 233717668, 0.8788626, -0.41563, -0.19868153, -0.12400786, 0.038133323, -0.27669138, -0.21692848, 0
1132, 233734335, 0.87859225, -0.41451162, -0.2008899, -0.12609234, -0.09110444, -0.28849667, -0.45748043, 0
1133, 233751002, 0.8783575, -0.41325685, -0.2029975, -0.12844762, -0.6740129, -0.30665284, -0.8170366, 0
1134, 233767669, 0.87785053, -0.41170037, -0.20657746, -0.13117617, -1.2067722, -0.4144688, -1.1145391, 0
1135, 233784336, 0.8770561, -0.40957034, -0.21210246, -0.13430315, -1.152475, -0.49946183, -1.1802921, 0
1136, 233801003, 0.8761288, -0.4068692, -0.21873493, -0.13788018, -0.8611124, -0.44913542, -1.3498869, 0
1137, 233817670, 0.875219, -0.40379047, -0.22547343, -0.14179836, -0.43662193, -0.31790674, -1.3644629, 0
