DeviceTag:,Xsens DOT,,,,,,,,,,,,,,,,,
FirmwareVersion:,1.0.0,,,,,,,,,,,,,,,,,
AppVersion:,2020.1.1,,,,,,,,,,,,,,,,,
Measurement Mode:,Sensor fusion Mode - Extended (Quaternion),,,,,,,,,,,,,,,,,
StartTime:,2020-06-15 13:38:29.108 +0200,,,,,,,,,,,,,,,,,
© Xsens Technologies B. V. 2005-2020,,,,,,,,,,,,,,,,,,,
PacketCounter,SampleTimeFine,Quat_W,Quat_X,Quat_Y,Quat_Z,FreeAcc_X,FreeAcc_Y,FreeAcc_Z,Status
1, 214932888, 0.02898, 0.6980041, -0.03647795, 0.7145768, 2.0302126, -0.1334123, -0.14226818, 0
2, 214949555, 0.029264, 0.6804012, -0.035960164, 0.7313718, 1.5466979, -0.11454578, -0.07213402, 0
3, 214966222, 0.029513586, 0.66508627, -0.035469223, 0.74533963, 1.1416248, -0.09006037, 0.0021924973, 0
4, 214982889, 0.029718557, 0.65405035, -0.035092562, 0.7550519, 0.8472977, -0.06426091, 0.02453804, 0
5, 214999556, 0.029855084, 0.6464518, -0.03480324, 0.76157564, 0.6456561, -0.061405506, 0.047774315, 0
6, 215016223, 0.029962778, 0.6411735, -0.03459541, 0.76603, 0.5192055, -0.045137085, 0.06227684, 0
7, 215032890, 0.030029511, 0.63740695, -0.034446616, 0.7691711, 0.4085359, -0.039416257, 0.058581352, 0
8, 215049557, 0.030077292, 0.6346487, -0.034342892, 0.7714513, 0.33822393, -0.04982689, 0.058540344, 0
9, 215066224, 0.03010624, 0.632562, -0.034291394, 0.7731643, 0.28713626, -0.03038146, 0.049575806, 0
10, 215082891, 0.030110901, 0.6309506, -0.034270726, 0.7744806, 0.28136873, -0.01874845, 0.0523386, 0
11, 215099558, 0.03010863, 0.6296878, -0.03426551, 0.77550805, 0.22302374, 0.0062802252, 0.06022358, 0
12, 215116225, 0.030078067, 0.62869704, -0.034296803, 0.77631134, 0.23471034, -0.0085722245, 0.06410313, 0
13, 215132892, 0.03007783, 0.6279, -0.03429179, 0.77695626, 0.16970061, -0.0018207924, 0.07007599, 0
14, 215149559, 0.030103887, 0.6271774, -0.034278434, 0.7775393, 0.117140435, -7.6846546E-4, 0.06991291, 0
15, 215166226, 0.030091025, 0.6265982, -0.034245126, 0.77800816, 0.12320189, -0.02327611, 0.055809975, 0
16, 215182893, 0.029944105, 0.6261075, -0.034085333, 0.7784157, 0.12746677, -0.0115319695, 0.077617645, 0
17, 215199560, 0.030000327, 0.62566566, -0.034077603, 0.778769, 0.10967809, -0.018283207, 0.062327385, 0
18, 215216227, 0.030080227, 0.6252703, -0.03410132, 0.7790825, 0.11228024, -0.014312764, 0.056243896, 0
19, 215232894, 0.030685399, 0.62490803, -0.034557257, 0.7793294, 0.1108266, -0.0054938085, 0.058485985, 0
20, 215249561, 0.03088229, 0.6245955, -0.034695048, 0.77956593, 0.08672697, -0.0033370205, 0.056456566, 0
21, 215266228, 0.030985082, 0.62431437, -0.034770135, 0.77978367, 0.078396454, -0.004773496, 0.06202221, 0
22, 215282895, 0.031304672, 0.6240402, -0.035043575, 0.779978, 0.09873684, -0.004197811, 0.06847191, 0
23, 215299562, 0.03221924, 0.62376225, -0.03579601, 0.7801289, 0.069994256, -0.0051905853, 0.068603516, 0
24, 215316229, 0.032279894, 0.62356305, -0.03585452, 0.78028303, 0.08086363, -0.006547323, 0.055140495, 0
25, 215332896, 0.032642785, 0.62338144, -0.036144637, 0.78039974, 0.06998067, -0.00967955, 0.07110596, 0
26, 215349563, 0.032149453, 0.62325984, -0.0357585, 0.7805351, 0.053016253, -0.0053337035, 0.05853367, 0
27, 215366230, 0.033102892, 0.62306494, -0.03652917, 0.7806151, 0.04410495, -0.002806233, 0.05718994, 0
28, 215382897, 0.032818824, 0.62294316, -0.036315065, 0.78073424, 0.03881186, 0.002356525, 0.05713749, 0
29, 215399564, 0.03273531, 0.62280583, -0.03627882, 0.780849, 0.04622091, -0.0032182373, 0.06349182, 0
30, 215416231, 0.032414995, 0.62268263, -0.036027603, 0.7809722, 0.066128, -0.011481903, 0.06099701, 0
31, 215432898, 0.032349896, 0.622585, -0.035970747, 0.7810555, 0.062720835, -0.0043727937, 0.06470013, 0
32, 215449565, 0.032340992, 0.62248516, -0.035948507, 0.78113645, 0.033016685, -0.0076535866, 0.061387062, 0
33, 215466232, 0.032402705, 0.6223972, -0.035997383, 0.7812018, 0.03901692, -0.01594976, 0.05631256, 0
34, 215482899, 0.032492243, 0.62231773, -0.03608388, 0.7812573, 0.035794497, 0.0071373414, 0.061268806, 0
35, 215499566, 0.032473397, 0.62225336, -0.03608393, 0.7813093, 0.0271208, -0.006995327, 0.079966545, 0
36, 215516233, 0.032615278, 0.62216806, -0.036220197, 0.781365, 0.034805473, -0.005188518, 0.063370705, 0
37, 215532900, 0.03263769, 0.62209207, -0.036257114, 0.78142285, 0.03244312, -0.006356778, 0.06499958, 0
38, 215549567, 0.033043135, 0.6220102, -0.036569953, 0.7814564, 0.034560043, 0.012994079, 0.04348564, 0
39, 215566234, 0.033104394, 0.6219467, -0.03661012, 0.78150254, 0.044356648, 0.0015294014, 0.06603241, 0
40, 215582901, 0.03319958, 0.62188226, -0.03667006, 0.78154695, 0.015446797, -0.019138185, 0.05559635, 0
41, 215599568, 0.033297703, 0.62182504, -0.036742106, 0.7815849, 0.037416305, -0.006812102, 0.062182426, 0
42, 215616235, 0.03324117, 0.621778, -0.036705527, 0.7816265, 0.03767262, -0.00552443, 0.061151505, 0
43, 215632902, 0.03322526, 0.6217351, -0.036700346, 0.78166157, 0.0295048, -0.005749005, 0.063614845, 0
44, 215649569, 0.033094756, 0.6216964, -0.03659714, 0.78170264, 0.035047848, 0.0034235758, 0.06552982, 0
45, 215666236, 0.03345472, 0.6216305, -0.03686743, 0.78172714, 0.022755358, -0.009374161, 0.052064896, 0
46, 215682903, 0.033677135, 0.6215756, -0.03702236, 0.7817538, 0.014876862, -0.0092595415, 0.07160282, 0
47, 215699570, 0.033499725, 0.62154615, -0.03686338, 0.78179234, 0.011826443, -0.009777658, 0.06049061, 0
48, 215716237, 0.033832, 0.62150544, -0.037120093, 0.7817983, 0.010757682, -0.002326295, 0.05136299, 0
49, 215732904, 0.033390667, 0.6214984, -0.036771633, 0.7818394, 0.014579553, 0.007361916, 0.06258011, 0
50, 215749571, 0.033679157, 0.6214442, -0.03700446, 0.78185904, 0.010407403, -0.0056266594, 0.07364082, 0
51, 215766238, 0.03361404, 0.62140036, -0.03696041, 0.78189874, 0.01601119, 0.0012168464, 0.07307911, 0
52, 215782905, 0.034119837, 0.62134075, -0.03734982, 0.7819058, 0.023353087, -0.010330043, 0.06427097, 0
53, 215799572, 0.034198146, 0.62131214, -0.037415642, 0.7819219, 0.021828765, -0.014925483, 0.06574917, 0
54, 215816239, 0.034118284, 0.6212781, -0.037350405, 0.78195554, 0.005769566, 0.0022420865, 0.059926033, 0
55, 215832906, 0.034177504, 0.62123996, -0.037412606, 0.7819802, 0.013664139, -0.0017160906, 0.07549858, 0
56, 215849573, 0.03415225, 0.6212068, -0.037405342, 0.78200793, 0.013530462, -0.004461277, 0.064720154, 0
57, 215866240, 0.034059197, 0.62118304, -0.037342764, 0.782034, 0.02070544, -1.6139033E-4, 0.06673908, 0
58, 215882907, 0.03396804, 0.62115735, -0.037277076, 0.7820615, 0.02026294, -0.0010871252, 0.064302444, 0
59, 215899574, 0.033911906, 0.6211343, -0.03724692, 0.7820838, 0.010861575, -0.0014853972, 0.054735184, 0
60, 215916241, 0.033894014, 0.6211146, -0.037243392, 0.78210026, 0.012727911, 9.734548E-4, 0.064362526, 0
61, 215932908, 0.03414518, 0.62108654, -0.037438437, 0.7821022, 0.0010338338, -0.009758953, 0.067092896, 0
62, 215949575, 0.034132637, 0.6210545, -0.037451584, 0.78212774, -0.015367251, 0.0025530627, 0.0677557, 0
63, 215966242, 0.034102045, 0.6210236, -0.03745073, 0.78215367, 0.0013759108, -0.0056742816, 0.065229416, 0
64, 215982909, 0.034120366, 0.6210037, -0.037488252, 0.78216684, 0.011581399, -9.893242E-4, 0.062480927, 0
65, 215999576, 0.03414174, 0.62096906, -0.037519075, 0.78219193, -0.01781392, 0.011420255, 0.06994152, 0
66, 216016243, 0.034064643, 0.6209454, -0.037461862, 0.7822169, 0.008197073, 0.0015856149, 0.05469799, 0
67, 216032910, 0.034115635, 0.62091887, -0.03750402, 0.78223366, 0.0058532413, -0.0054144477, 0.04726696, 0
68, 216049577, 0.034015585, 0.620898, -0.03741431, 0.78225887, 0.014801073, -0.006887426, 0.066241264, 0
69, 216066244, 0.033970688, 0.6208747, -0.03737808, 0.78228104, 0.0052515706, -0.013592214, 0.06985283, 0
70, 216082911, 0.034003504, 0.620859, -0.037406437, 0.78229076, 0.0069854916, -0.016835345, 0.06904507, 0
71, 216099578, 0.034091603, 0.62084657, -0.03749843, 0.78229225, 0.011902195, -0.018577935, 0.06977272, 0
72, 216116245, 0.033994604, 0.6208334, -0.037437838, 0.78230983, -0.019244108, -0.011668047, 0.052362442, 0
73, 216132912, 0.033924006, 0.6208148, -0.037384506, 0.7823303, -0.017714163, -0.008898749, 0.050984383, 0
74, 216149579, 0.033820987, 0.6207859, -0.037320457, 0.78236073, -0.0075319274, -0.012728029, 0.049835205, 0
75, 216166246, 0.034204576, 0.6207332, -0.037636895, 0.7823706, 0.017853461, 0.0045406097, 0.064385414, 0
76, 216182913, 0.034310404, 0.62071574, -0.037723556, 0.7823757, 0.006652618, -0.01002186, 0.066329, 0
77, 216199580, 0.034279346, 0.62070763, -0.037709367, 0.78238416, 0.008151637, -0.002349708, 0.05978489, 0
78, 216216247, 0.034311857, 0.62070715, -0.037733763, 0.78238183, -0.003869795, -0.008784618, 0.0625515, 0
79, 216232914, 0.034324665, 0.6207001, -0.037732154, 0.78238714, 0.0030218149, -0.010411206, 0.059588432, 0
80, 216249581, 0.03432507, 0.62066823, -0.037743524, 0.78241175, -0.013973675, -0.0067660445, 0.06090927, 0
81, 216266248, 0.034332532, 0.62065333, -0.03777449, 0.7824218, -0.0010367212, 0.0010042018, 0.06101322, 0
82, 216282915, 0.034342296, 0.62063926, -0.03779612, 0.7824315, -0.006768233, -3.839813E-4, 0.055942535, 0
83, 216299582, 0.03433927, 0.62062645, -0.03779106, 0.7824421, -0.0088006165, -0.012497727, 0.077890396, 0
84, 216316249, 0.034301233, 0.6206153, -0.037745573, 0.78245485, -0.011611651, -8.1666047E-4, 0.06478119, 0
85, 216332916, 0.03431861, 0.62060386, -0.03775317, 0.7824626, -0.004340059, -0.0051277643, 0.050427437, 0
86, 216349583, 0.034392793, 0.62058884, -0.037801903, 0.7824689, -4.8443465E-4, -0.020285463, 0.04806137, 0
87, 216366250, 0.034433965, 0.62059706, -0.037846472, 0.7824585, -1.1917257E-4, -0.0017366817, 0.06277752, 0
88, 216382917, 0.03450109, 0.62060714, -0.03789744, 0.782445, -0.004008229, -6.2312617E-4, 0.06308365, 0
89, 216399584, 0.034575224, 0.6205983, -0.03795018, 0.7824462, -0.026948502, -0.013003914, 0.05741501, 0
90, 216416251, 0.034589674, 0.620565, -0.03795448, 0.7824718, -0.011811248, -0.012651211, 0.049531937, 0
91, 216432918, 0.0346324, 0.6205336, -0.037990168, 0.782493, -0.0021879517, -0.004953257, 0.0648489, 0
92, 216449585, 0.03472218, 0.6205177, -0.038059637, 0.78249836, -0.008534098, -0.014452306, 0.07527828, 0
93, 216466252, 0.03465961, 0.6205205, -0.038001243, 0.78250164, -0.0015647539, -0.002274817, 0.062469482, 0
94, 216482919, 0.034585834, 0.62052256, -0.037941623, 0.78250635, -0.005221522, 5.227549E-4, 0.04687023, 0
95, 216499586, 0.03464261, 0.6205159, -0.037995405, 0.7825064, -0.010253613, -0.015892163, 0.06244278, 0
96, 216516253, 0.034413897, 0.62050515, -0.03781878, 0.78253365, -0.014019245, -0.004287537, 0.071003914, 0
97, 216532920, 0.034320053, 0.62049323, -0.037745487, 0.78255075, -0.029698955, 0.010981094, 0.050979614, 0
98, 216549587, 0.03399836, 0.620496, -0.037483484, 0.7825752, -0.0048529175, -0.008375756, 0.065550804, 0
99, 216566254, 0.03410652, 0.62047327, -0.037580285, 0.7825839, -0.012954946, -0.010750289, 0.057317734, 0
100, 216582921, 0.034186807, 0.6204476, -0.037662424, 0.7825968, 0.0014976031, -0.020323321, 0.054878235, 0
101, 216599588, 0.03413422, 0.62043345, -0.037634145, 0.7826117, -0.0018550099, -0.006946978, 0.062491417, 0
102, 216616255, 0.03396718, 0.6204267, -0.03750939, 0.7826301, -0.014689567, 0.0037388268, 0.067396164, 0
103, 216632922, 0.03395007, 0.62040854, -0.037498593, 0.7826458, -0.013414277, 0.00745107, 0.06961441, 0
104, 216649589, 0.03400404, 0.6203948, -0.03753919, 0.78265244, -0.0034167308, -0.0044676466, 0.060212135, 0
105, 216666256, 0.034001786, 0.62039375, -0.037539847, 0.78265333, 0.0019515641, 0.009616617, 0.07026005, 0
106, 216682923, 0.033851624, 0.62040985, -0.037421085, 0.7826528, -0.030585736, -0.0010640335, 0.054400444, 0
107, 216699590, 0.033886615, 0.62040836, -0.037445907, 0.78265125, -0.010036474, -0.0139309615, 0.05496502, 0
108, 216716257, 0.033970144, 0.6204001, -0.037496056, 0.7826517, -0.0044782464, 0.004552917, 0.053829193, 0
109, 216732924, 0.033947185, 0.6204003, -0.037472066, 0.78265375, -0.016970288, -0.0057602082, 0.06314945, 0
110, 216749591, 0.033999413, 0.62037975, -0.037509363, 0.78266597, -0.030622952, 0.0033279683, 0.05226612, 0
111, 216766258, 0.034088, 0.620355, -0.037558883, 0.78267944, -0.014196883, 0.0041699135, 0.071891785, 0
112, 216782925, 0.034352075, 0.6203274, -0.037738636, 0.7826811, -0.0045753093, -1.2351885E-4, 0.06060791, 0
113, 216799592, 0.03433983, 0.6203131, -0.03772288, 0.7826937, -0.012269186, -0.0037173976, 0.06640625, 0
114, 216816259, 0.03424108, 0.6203017, -0.03762896, 0.78271157, -0.010539287, -0.012338055, 0.06384468, 0
115, 216832926, 0.034235172, 0.6202915, -0.0376168, 0.78272045, -0.020065345, -0.00666253, 0.06674099, 0
116, 216849593, 0.03427686, 0.62028384, -0.037631717, 0.7827241, -0.033380814, 0.0020993734, 0.05953121, 0
117, 216866260, 0.034297053, 0.62027115, -0.037635095, 0.78273314, -0.00961748, 0.010958756, 0.056559563, 0
118, 216882927, 0.034447424, 0.6202423, -0.03774183, 0.78274417, -0.04437859, -0.012517271, 0.065711975, 0
119, 216899594, 0.03431603, 0.62022704, -0.037617702, 0.7827681, -0.01596049, 0.0017583624, 0.061433792, 0
120, 216916261, 0.03446307, 0.6201973, -0.037723545, 0.7827801, -0.010948118, -0.007367462, 0.058224678, 0
121, 216932928, 0.034407884, 0.62018746, -0.037650038, 0.78279394, -0.010035273, 0.011730589, 0.06558514, 0
122, 216949595, 0.03444774, 0.6201686, -0.03765973, 0.7828065, -0.021988908, -0.014324973, 0.06047249, 0
123, 216966262, 0.034461357, 0.6201483, -0.0376571, 0.7828222, -0.019614695, -0.0052117775, 0.063251495, 0
124, 216982929, 0.03445868, 0.620135, -0.03766424, 0.7828324, -0.020727942, -0.013939916, 0.06526089, 0
125, 216999596, 0.03453795, 0.62010616, -0.037745155, 0.7828478, -0.023713568, 0.017299568, 0.051566124, 0
126, 217016263, 0.03444762, 0.62007713, -0.03767254, 0.78287834, -0.03528825, 0.009133759, 0.07367611, 0
127, 217032930, 0.034407984, 0.620055, -0.037640736, 0.78289914, -0.022239672, -0.0010463061, 0.06386566, 0
128, 217049597, 0.034435473, 0.62003076, -0.037664972, 0.78291595, -0.015840523, 4.0666785E-4, 0.060814857, 0
129, 217066264, 0.03444088, 0.6200212, -0.03767206, 0.7829229, -0.016947102, 0.0059156055, 0.054389, 0
130, 217082931, 0.034323063, 0.620019, -0.037589572, 0.78293383, -0.017499195, 6.1530323E-4, 0.06295395, 0
131, 217099598, 0.03432693, 0.62001085, -0.037577372, 0.78294075, -0.027980398, -0.0081500085, 0.05282688, 0
132, 217116265, 0.034333535, 0.6200007, -0.03758919, 0.7829479, -0.018327631, 0.0049304585, 0.058620453, 0
133, 217132932, 0.03428873, 0.6199944, -0.037572324, 0.78295565, -0.024457918, -0.0045550684, 0.056162834, 0
134, 217149599, 0.034419578, 0.6199702, -0.037681367, 0.7829639, -0.015193558, 0.001719583, 0.061457634, 0
135, 217166266, 0.034409568, 0.61996585, -0.037679575, 0.7829678, -0.022895081, -0.006546778, 0.06321812, 0
136, 217182933, 0.03430496, 0.61997414, -0.037601266, 0.78296965, -0.023843993, 6.638335E-5, 0.06776428, 0
137, 217199600, 0.03451254, 0.6199615, -0.037766922, 0.7829626, -0.014390804, 0.006446868, 0.05834198, 0
138, 217216267, 0.03452736, 0.61995804, -0.037759483, 0.782965, -0.022164183, -0.004509793, 0.05728531, 0
139, 217232934, 0.034373336, 0.61996657, -0.037638903, 0.78297085, -0.035908755, 0.0011400976, 0.06913757, 0
140, 217249601, 0.034423593, 0.6199497, -0.037669968, 0.78298056, -0.03449148, -0.0010987478, 0.05889511, 0
141, 217266268, 0.034526, 0.6199456, -0.037746508, 0.7829755, -0.020901723, -0.012862989, 0.063085556, 0
142, 217282935, 0.034741703, 0.61992234, -0.037912704, 0.78297627, -0.03308658, -0.008911112, 0.06298542, 0
143, 217299602, 0.03475452, 0.6199125, -0.037935458, 0.7829826, -0.031125726, -0.007406451, 0.06380558, 0
144, 217316269, 0.034734678, 0.6199037, -0.03793018, 0.78299063, -0.011665794, -0.0045784255, 0.075460434, 0
145, 217332936, 0.034752876, 0.6199065, -0.037945084, 0.78298694, -0.024399294, -0.0013760435, 0.0676651, 0
146, 217349603, 0.034761086, 0.61990273, -0.037942, 0.78298956, -0.011205526, 0.014450531, 0.06815624, 0
147, 217366270, 0.034926202, 0.6198936, -0.038058642, 0.7829838, -0.028022408, 0.006866765, 0.057444572, 0
148, 217382937, 0.034873728, 0.6198929, -0.038007848, 0.7829892, -0.029966459, -0.008440911, 0.0671196, 0
149, 217399604, 0.03486758, 0.6198941, -0.03800497, 0.78298867, -0.039708223, -0.013561662, 0.060946465, 0
150, 217416271, 0.034973312, 0.61987853, -0.03810064, 0.7829916, -0.017739546, -0.010237467, 0.058579445, 0
151, 217432938, 0.034912106, 0.6198736, -0.038045872, 0.7830009, -0.0076827733, -0.0054989913, 0.042204857, 0
152, 217449605, 0.03488819, 0.6198658, -0.03800722, 0.78300995, -0.0237662, 0.010017375, 0.07119942, 0
153, 217466272, 0.03497348, 0.61984473, -0.03808063, 0.78301924, -0.029035011, 0.0061154542, 0.05924797, 0
154, 217482939, 0.034939032, 0.61983806, -0.038041037, 0.7830281, -0.018047694, 0.0042828154, 0.056985855, 0
155, 217499606, 0.034943786, 0.61982596, -0.038039953, 0.78303754, -0.02549096, 0.008903261, 0.06657791, 0
156, 217516273, 0.03497833, 0.6198079, -0.038046535, 0.78304994, -0.023644486, 0.0074254777, 0.062885284, 0
157, 217532940, 0.034968283, 0.6198032, -0.038018353, 0.7830555, -0.039523765, 0.006831911, 0.06365013, 0
158, 217549607, 0.03482803, 0.6198026, -0.037890885, 0.78306836, -0.033558328, 0.0017100418, 0.07386589, 0
159, 217566274, 0.03479538, 0.61979234, -0.03785348, 0.7830797, -0.028798858, 0.001090827, 0.069187164, 0
160, 217582941, 0.034865543, 0.61977094, -0.03790088, 0.78309125, -0.033514846, -0.0029760052, 0.051721573, 0
161, 217599608, 0.034810405, 0.61976725, -0.037850354, 0.7830991, -0.022735924, 0.0036603878, 0.05611801, 0
162, 217616275, 0.0348481, 0.61975676, -0.03788688, 0.783104, -0.020990692, 0.00657997, 0.054553986, 0
163, 217632942, 0.03512284, 0.6197246, -0.038101673, 0.78310674, -0.03602751, -0.0023035663, 0.05651188, 0
164, 217649609, 0.035125952, 0.619713, -0.038083967, 0.78311664, -0.03050597, 0.008529785, 0.058101654, 0
165, 217666276, 0.03535171, 0.61968255, -0.03825938, 0.7831221, -0.028965883, -6.8056904E-4, 0.054228783, 0
166, 217682943, 0.035406113, 0.6196584, -0.03828999, 0.78313726, -0.032638825, -0.0038271146, 0.0569973, 0
167, 217699610, 0.035509907, 0.6196244, -0.03835752, 0.78315604, -0.025295213, 0.0022667288, 0.06789017, 0
168, 217716277, 0.035294916, 0.6196068, -0.038169105, 0.7831889, -0.035897426, -0.014233696, 0.058584213, 0
169, 217732944, 0.035368092, 0.6195958, -0.0382327, 0.7831912, -0.029736409, -0.007905989, 0.06567478, 0
170, 217749611, 0.035285607, 0.6195893, -0.038176455, 0.7832028, -0.03237537, 0.0030671007, 0.059688568, 0
171, 217766278, 0.03537281, 0.619565, -0.038253263, 0.7832144, -0.035278425, 0.001741124, 0.045708656, 0
172, 217782945, 0.03519609, 0.6195497, -0.03811646, 0.78324103, -0.043070387, -0.003238996, 0.059532166, 0
173, 217799612, 0.03545489, 0.6195235, -0.038336467, 0.78323936, -0.032381468, -0.0014691786, 0.062687874, 0
174, 217816279, 0.0354445, 0.61952555, -0.03832897, 0.78323865, -0.025467558, 0.0016679654, 0.054930687, 0
175, 217832946, 0.035460867, 0.61952287, -0.038324654, 0.78324014, -0.037452154, 9.151179E-4, 0.06254864, 0
176, 217849613, 0.035494056, 0.6195212, -0.038328007, 0.78323984, -0.029687507, -0.0013678294, 0.06267166, 0
177, 217866280, 0.035551492, 0.61951035, -0.03834577, 0.783245, -0.023880221, 0.008595261, 0.053954124, 0
178, 217882947, 0.035492625, 0.61951375, -0.03828449, 0.78324795, -0.003772325, 0.0046692137, 0.055883408, 0
179, 217899614, 0.03549999, 0.6195213, -0.038281772, 0.7832417, -0.028427444, -0.004027787, 0.07015419, 0
180, 217916281, 0.03562038, 0.61952555, -0.03838367, 0.783228, -0.026032144, 0.0046140198, 0.07616711, 0
181, 217932948, 0.035500653, 0.6195511, -0.03828582, 0.78321797, -0.02937007, -0.0028545258, 0.059202194, 0
182, 217949615, 0.035457853, 0.6195572, -0.03824281, 0.78321713, -0.031625777, 0.012540627, 0.06423569, 0
183, 217966282, 0.0354631, 0.61954916, -0.038232174, 0.78322387, -0.03276261, -0.0014533371, 0.06927776, 0
184, 217982949, 0.035561718, 0.6195545, -0.038295504, 0.78321207, -0.049189504, -2.2495181E-4, 0.061883926, 0
185, 217999616, 0.035521947, 0.6195452, -0.038252063, 0.7832234, -0.040940788, 0.0022625518, 0.06419277, 0
186, 218016283, 0.035587676, 0.6195097, -0.03830593, 0.7832458, -0.026397083, -0.0146447085, 0.051309586, 0
187, 218032950, 0.035577968, 0.61948866, -0.038342804, 0.783261, -0.024234088, -0.0011265193, 0.050380707, 0
188, 218049617, 0.03567268, 0.6194668, -0.038447626, 0.78326887, -0.03182137, -0.0036718708, 0.059078217, 0
189, 218066284, 0.03564502, 0.61947656, -0.038445953, 0.78326267, -0.023781287, -0.0010891646, 0.066064835, 0
190, 218082951, 0.03560836, 0.619489, -0.03840164, 0.7832566, -0.020275647, 0.010563013, 0.0681963, 0
191, 218099618, 0.03557546, 0.61950743, -0.03833843, 0.7832467, -0.02890627, -0.0012425225, 0.060625076, 0
192, 218116285, 0.03556557, 0.6195169, -0.038305946, 0.78324103, -0.02428153, 0.0022920833, 0.06832218, 0
193, 218132952, 0.035657942, 0.6194998, -0.03837576, 0.783247, -0.053257752, -0.013491773, 0.059412956, 0
194, 218149619, 0.035699714, 0.6194765, -0.03841885, 0.78326154, -0.03907168, -0.0027327812, 0.06820965, 0
195, 218166286, 0.03569097, 0.61946267, -0.038405392, 0.78327334, -0.02370644, -0.0108089885, 0.061102867, 0
196, 218182953, 0.03572263, 0.6194561, -0.038429983, 0.78327596, -0.03249919, -0.005367426, 0.06038189, 0
197, 218199620, 0.03565588, 0.6194582, -0.038361154, 0.7832807, -0.031153638, 0.012674875, 0.06573582, 0
198, 218216287, 0.035722867, 0.6194505, -0.03840335, 0.7832817, -0.033990204, -0.0072118132, 0.05695057, 0
199, 218232954, 0.035730883, 0.6194535, -0.038412414, 0.7832786, -0.029279415, -0.0025821754, 0.07790756, 0
200, 218249621, 0.03567144, 0.61946374, -0.03836364, 0.78327554, -0.031460986, 0.0056843115, 0.07277489, 0
201, 218266288, 0.03563002, 0.6194535, -0.0383322, 0.783287, -0.036245212, 0.0031608085, 0.0653038, 0
202, 218282955, 0.03570247, 0.61943877, -0.0383974, 0.78329206, -0.040801786, -0.010075866, 0.06718445, 0
203, 218299622, 0.035633426, 0.61943185, -0.038345825, 0.7833034, -0.026225494, 0.002636014, 0.0732193, 0
204, 218316289, 0.035602726, 0.61942536, -0.03831607, 0.7833113, -0.027858522, -0.0029992925, 0.05632019, 0
205, 218332956, 0.035650816, 0.6194221, -0.038359713, 0.78330964, -0.028182829, -0.008346491, 0.04818058, 0
206, 218349623, 0.03565554, 0.6194159, -0.038376804, 0.78331345, -0.007023388, 8.0053956E-4, 0.055191994, 0
207, 218366290, 0.03563885, 0.6194124, -0.03837457, 0.783317, -0.039189845, 0.016152862, 0.060632706, 0
208, 218382957, 0.03561567, 0.61941415, -0.0383556, 0.78331774, -0.0448072, -0.0017310939, 0.062389374, 0
209, 218399624, 0.035631917, 0.6194178, -0.03835731, 0.7833139, -0.03659624, 0.002390052, 0.05059719, 0
210, 218416291, 0.035633735, 0.6194129, -0.03834632, 0.7833182, -0.045156524, -0.005486307, 0.064045906, 0
211, 218432958, 0.03566894, 0.61940753, -0.03835775, 0.78332037, -0.03421534, -0.007954923, 0.080093384, 0
212, 218449625, 0.035829946, 0.61938673, -0.038484663, 0.7833233, -0.024650734, -0.004532899, 0.07277489, 0
213, 218466292, 0.03601955, 0.6193629, -0.038635246, 0.78332597, -0.020055052, 3.4393056E-4, 0.059361458, 0
214, 218482959, 0.035938963, 0.61935157, -0.038589902, 0.7833409, -0.033930667, -0.008074657, 0.04716301, 0
215, 218499626, 0.035898164, 0.61935645, -0.038553078, 0.7833407, -0.017378146, 0.012927193, 0.07003784, 0
216, 218516293, 0.03602059, 0.6193563, -0.038645934, 0.7833307, -0.03212854, 0.016027067, 0.075196266, 0
217, 218532960, 0.03583407, 0.6193718, -0.038485654, 0.7833348, -0.04047915, -0.003220668, 0.06587982, 0
218, 218549627, 0.035927743, 0.6193665, -0.03854239, 0.7833318, -0.03356793, -0.013089952, 0.063881874, 0
219, 218566294, 0.03584494, 0.6193674, -0.03847147, 0.7833384, -0.0267716, 0.0015872214, 0.06682968, 0
220, 218582961, 0.03581744, 0.61935914, -0.03843986, 0.78334785, -0.045561064, 5.742886E-4, 0.062140465, 0
221, 218599628, 0.035780717, 0.6193592, -0.03841426, 0.7833507, -0.02636647, -0.0064378297, 0.06305599, 0
222, 218616295, 0.035789292, 0.6193601, -0.038452044, 0.7833478, -0.027277973, -0.0036819568, 0.062604904, 0
223, 218632962, 0.03592178, 0.6193663, -0.03856883, 0.7833309, -0.02716718, 0.013442335, 0.056054115, 0
224, 218649629, 0.03588912, 0.6193768, -0.038534213, 0.78332597, -0.020568531, 0.007897286, 0.05217743, 0
225, 218666296, 0.035923306, 0.6193757, -0.038578346, 0.78332305, -0.050816294, 0.0037735552, 0.047902107, 0
226, 218682963, 0.03601806, 0.619363, -0.03866122, 0.78332466, -0.036100082, -0.0033804518, 0.059070587, 0
227, 218699630, 0.035982836, 0.61935884, -0.03863349, 0.783331, -0.03987416, -0.0029782404, 0.057053566, 0
228, 218716297, 0.03584887, 0.6193457, -0.03853034, 0.7833527, -0.04056255, -0.019590842, 0.062353134, 0
229, 218732964, 0.035864666, 0.6193407, -0.03856246, 0.78335416, -0.046219602, -0.0022857273, 0.06227112, 0
230, 218749631, 0.03585874, 0.619328, -0.038550787, 0.7833651, -0.022820465, 0.0020267316, 0.05540657, 0
231, 218766298, 0.035817314, 0.6193377, -0.038517103, 0.78336096, -0.03599838, 6.9460843E-4, 0.06391811, 0
232, 218782965, 0.03585925, 0.6193493, -0.0385333, 0.78334904, -0.019314233, -0.0016894925, 0.061893463, 0
233, 218799632, 0.036008812, 0.6193401, -0.038629074, 0.7833447, -0.03692243, -0.0034139089, 0.06706238, 0
234, 218816299, 0.03596408, 0.61934745, -0.038579233, 0.78334343, -0.026877377, 0.0046729716, 0.071495056, 0
235, 218832966, 0.035972144, 0.61936194, -0.03858917, 0.78333116, -0.04342125, -5.588941E-4, 0.061320305, 0
236, 218849633, 0.03595783, 0.619376, -0.03856868, 0.7833217, -0.030615425, -0.012670376, 0.0723629, 0
237, 218866300, 0.035974268, 0.6193846, -0.03856265, 0.7833145, -0.012379509, 0.0022361632, 0.06762123, 0
238, 218882967, 0.03597415, 0.61938065, -0.038545784, 0.78331846, -0.04814252, -0.0164542, 0.061915398, 0
239, 218899634, 0.03602183, 0.61937344, -0.03860028, 0.78331935, -0.026670977, 0.0049519436, 0.06717396, 0
240, 218916301, 0.035984136, 0.61937743, -0.03858527, 0.7833186, -0.038310178, -0.003680001, 0.054994583, 0
241, 218932968, 0.036011007, 0.61937916, -0.038607057, 0.7833149, -0.03404178, -0.0015389845, 0.061314583, 0
242, 218949635, 0.036130372, 0.6193615, -0.038692527, 0.7833192, -0.024466336, 0.0033265993, 0.06448841, 0
243, 218966302, 0.036216307, 0.61935353, -0.038775638, 0.7833174, -0.024366558, 0.0023442318, 0.061118126, 0
244, 218982969, 0.036172964, 0.61935025, -0.0387377, 0.78332394, -0.026724463, 0.011265221, 0.06439686, 0
245, 218999636, 0.03616627, 0.6193518, -0.038727056, 0.78332347, -0.027969737, 0.011704004, 0.062335014, 0
246, 219016303, 0.03620793, 0.61934507, -0.038759377, 0.7833252, -0.035701837, 0.0046744104, 0.06402588, 0
247, 219032970, 0.036317363, 0.6193376, -0.038849175, 0.7833216, -0.02447115, -0.004856224, 0.06080532, 0
248, 219049637, 0.036223043, 0.6193491, -0.03878338, 0.7833202, -0.017765114, 0.0011779133, 0.05081749, 0
249, 219066304, 0.036216132, 0.61937314, -0.038794275, 0.78330094, -0.018419862, -0.0024153788, 0.057961464, 0
250, 219082971, 0.03627444, 0.61939925, -0.038824614, 0.7832761, -0.028419994, -0.0035316583, 0.059156418, 0
251, 219099638, 0.036241412, 0.6194243, -0.038787313, 0.7832596, -0.042266294, 0.001150547, 0.059236526, 0
252, 219116305, 0.036233965, 0.61943173, -0.03878031, 0.7832545, -0.035835776, -0.005809954, 0.058156967, 0
253, 219132972, 0.036256187, 0.6194304, -0.03881475, 0.7832527, -0.051046737, 0.007178342, 0.064730644, 0
254, 219149639, 0.03630596, 0.619442, -0.038862564, 0.78323895, -0.0270657, 8.89861E-6, 0.0559206, 0
255, 219166306, 0.036302872, 0.6194916, -0.038862374, 0.7831999, -0.009813842, 0.016013976, 0.06628704, 0
256, 219182973, 0.03625577, 0.619559, -0.038803715, 0.7831517, -0.015618171, 0.0026334855, 0.06328392, 0
257, 219199640, 0.036203854, 0.6195945, -0.03873748, 0.7831293, -0.037528563, 0.01232023, 0.047693253, 0
258, 219216307, 0.036225777, 0.6195863, -0.038753483, 0.78313404, -0.04907524, 0.007895959, 0.05087471, 0
259, 219232974, 0.036292456, 0.6195477, -0.03881757, 0.7831581, -0.026524687, 1.5285492E-4, 0.073620796, 0
260, 219249641, 0.03621365, 0.6195239, -0.03875692, 0.78318363, -0.025942897, 0.0056567215, 0.06347847, 0
261, 219266308, 0.036228016, 0.6195266, -0.03877048, 0.7831801, -0.034257833, -0.00601451, 0.062776566, 0
262, 219282975, 0.036145955, 0.61954993, -0.038705215, 0.78316885, -0.019661363, -0.0031786195, 0.062880516, 0
263, 219299642, 0.03639705, 0.6195543, -0.03891646, 0.7831432, -0.027174482, 0.014813907, 0.059271812, 0
264, 219316309, 0.036307245, 0.61956185, -0.038829297, 0.7831457, -0.057195645, 0.003371707, 0.06486225, 0
265, 219332976, 0.03639945, 0.61952686, -0.038881935, 0.7831665, -0.042790946, 0.004119092, 0.059916496, 0
266, 219349643, 0.036252912, 0.6194663, -0.038762752, 0.7832271, -0.03875527, -0.017659899, 0.06664753, 0
267, 219366310, 0.036047786, 0.6194417, -0.038614158, 0.7832633, -0.019170126, -0.021539189, 0.048326492, 0
268, 219382977, 0.036075585, 0.61944133, -0.038668882, 0.7832597, -0.022322975, -0.0065376563, 0.057434082, 0
269, 219399644, 0.035883605, 0.6194586, -0.03852902, 0.7832617, -0.011870998, 0.0092414785, 0.05975151, 0
270, 219416311, 0.03612187, 0.6194283, -0.03870556, 0.783266, -0.043539397, 0.01134563, 0.05593109, 0
271, 219432978, 0.036113873, 0.61939204, -0.038677886, 0.78329647, -0.043391675, 0.017060548, 0.065956116, 0
272, 219449645, 0.036110453, 0.6193525, -0.038667366, 0.78332835, -0.03603274, 0.0062642857, 0.05529976, 0
273, 219466312, 0.03619762, 0.6193304, -0.03874429, 0.78333807, -0.032887403, -0.0010452444, 0.060468674, 0
274, 219482979, 0.036022335, 0.6193356, -0.03864155, 0.7833472, -0.032580387, 3.9477974E-5, 0.061706543, 0
275, 219499646, 0.035986606, 0.6193259, -0.038640507, 0.78335655, -0.03197276, -0.0011876221, 0.05306053, 0
276, 219516313, 0.036049057, 0.61928, -0.038696516, 0.78338724, -0.025641395, -0.0021501947, 0.05953598, 0
277, 219532980, 0.036231216, 0.6192174, -0.038843874, 0.78342086, -0.025475396, 0.0071033114, 0.06370735, 0
278, 219549647, 0.036265638, 0.6191951, -0.038892575, 0.7834345, -0.02259449, 0.014664574, 0.055682182, 0
279, 219566314, 0.03633754, 0.619193, -0.03895974, 0.78342944, -0.011988104, 0.010029906, 0.068434715, 0
280, 219582981, 0.03637389, 0.61919904, -0.03899918, 0.7834211, -0.012670869, 0.01764403, 0.060512543, 0
281, 219599648, 0.03652914, 0.61920536, -0.03910287, 0.7834037, -0.028847966, 0.0052778535, 0.06395435, 0
282, 219616315, 0.036554776, 0.6192269, -0.03910565, 0.78338534, -0.020772781, -0.0023846598, 0.05487728, 0
283, 219632982, 0.036506996, 0.6192658, -0.039064392, 0.7833589, -0.0372163, 0.0022483028, 0.055779457, 0
284, 219649649, 0.03649719, 0.6193126, -0.03905519, 0.7833228, -0.030947458, 0.003892031, 0.07246494, 0
285, 219666316, 0.03664136, 0.6193507, -0.039149478, 0.78328127, -0.026691407, -0.0034715752, 0.06402111, 0
286, 219682983, 0.036916774, 0.6193746, -0.03934364, 0.7832398, -0.038981177, -0.010070404, 0.064507484, 0
287, 219699650, 0.036910728, 0.6194131, -0.039336525, 0.7832099, -0.005570685, -0.013320897, 0.059771538, 0
288, 219716317, 0.036999818, 0.6194604, -0.039398924, 0.7831653, -0.011984398, -0.0035118915, 0.06334877, 0
289, 219732984, 0.037063655, 0.6195072, -0.03943175, 0.78312343, -0.029660057, 0.0032467353, 0.063492775, 0
290, 219749651, 0.037147954, 0.61954415, -0.039485425, 0.7830875, -0.03970821, -0.0074490723, 0.052669525, 0
291, 219766318, 0.037234075, 0.6195881, -0.03954105, 0.78304577, -0.035901424, 0.007810199, 0.06386948, 0
292, 219782985, 0.037253108, 0.6196239, -0.0395361, 0.7830168, -0.028921135, 0.0016671831, 0.05534935, 0
293, 219799652, 0.0371989, 0.6196462, -0.039495293, 0.78300387, -0.042617757, 0.0017341952, 0.060420036, 0
294, 219816319, 0.037196457, 0.6196533, -0.03949022, 0.7829986, -0.030034306, 0.005766369, 0.05098915, 0
295, 219832986, 0.037302684, 0.6196605, -0.039584123, 0.7829831, -0.0126109, -9.7522896E-4, 0.07206631, 0
296, 219849653, 0.037336126, 0.6196701, -0.039604556, 0.7829729, -0.024503453, 0.004754861, 0.051686287, 0
297, 219866320, 0.03743213, 0.61969477, -0.03967156, 0.78294533, -0.015244291, 0.0038854235, 0.056141853, 0
298, 219882987, 0.037448548, 0.6197026, -0.039686028, 0.78293765, -0.038809158, -0.006601036, 0.061899185, 0
299, 219899654, 0.03747594, 0.6197068, -0.03971731, 0.78293145, -0.019666728, -0.0025221063, 0.0728302, 0
300, 219916321, 0.037407722, 0.61969423, -0.039673276, 0.7829469, -0.030227648, -0.0063287276, 0.06914139, 0
301, 219932988, 0.037468903, 0.61968124, -0.039741687, 0.78295076, -0.026061164, -0.004826944, 0.060331345, 0
302, 219949655, 0.037524663, 0.61966026, -0.039812848, 0.7829611, -0.02956969, -0.0059762057, 0.0560503, 0
303, 219966322, 0.037522066, 0.6196408, -0.039844174, 0.782975, -0.023246424, -0.0074723037, 0.059490204, 0
304, 219982989, 0.03753058, 0.61961776, -0.039894734, 0.78299034, -0.0201663, -7.2694797E-4, 0.06471062, 0
305, 219999656, 0.037526306, 0.6195951, -0.039939716, 0.783006, -0.023583625, 0.005736879, 0.0657959, 0
306, 220016323, 0.03751838, 0.61960566, -0.039967787, 0.7829966, -0.029019846, 0.0079664765, 0.07424164, 0
307, 220032990, 0.03756338, 0.61961037, -0.04002099, 0.7829881, -0.0072582792, 0.0016538422, 0.0732975, 0
308, 220049657, 0.03765469, 0.6196032, -0.04010736, 0.7829849, -0.052193187, 0.010114646, 0.05058956, 0
309, 220066324, 0.03766299, 0.61956906, -0.04011831, 0.78301096, -0.019843588, -0.0013919409, 0.058094025, 0
310, 220082991, 0.03775882, 0.61955047, -0.04021319, 0.78301626, -0.04016613, 0.01523143, 0.065709114, 0
311, 220099658, 0.037694573, 0.6195518, -0.040192846, 0.7830195, -0.028552536, 0.007777846, 0.06171894, 0
312, 220116325, 0.037630238, 0.6195589, -0.040153734, 0.7830188, -0.014710156, -0.006246279, 0.059238434, 0
313, 220132992, 0.037645902, 0.61957556, -0.040176444, 0.7830037, -0.019392531, -0.00998505, 0.06718922, 0
314, 220149659, 0.037702296, 0.61956245, -0.04023541, 0.7830084, -0.02881589, 0.0072079995, 0.064697266, 0
315, 220166326, 0.03771742, 0.6195586, -0.04025384, 0.78300977, -0.018136403, -0.0047518713, 0.056918144, 0
316, 220182993, 0.037811905, 0.6195598, -0.04029669, 0.783002, -0.030459315, 0.0033049744, 0.053732872, 0
317, 220199660, 0.037906043, 0.6195696, -0.040362757, 0.7829862, -0.032295533, -0.002230841, 0.053761482, 0
318, 220216327, 0.03793663, 0.6195724, -0.040367246, 0.78298235, -0.027442377, -0.014772935, 0.06204033, 0
319, 220232994, 0.037991222, 0.6195779, -0.040396634, 0.78297377, -0.025128856, 0.0040335148, 0.058176994, 0
320, 220249661, 0.038070213, 0.61957854, -0.040456183, 0.7829664, -0.02810455, -0.004177471, 0.07022095, 0
321, 220266328, 0.038062327, 0.6195874, -0.040442027, 0.7829605, -0.02772325, 0.010402558, 0.0605402, 0
322, 220282995, 0.038117815, 0.61959624, -0.040508583, 0.7829473, -0.04114787, 5.8008597E-4, 0.04355812, 0
323, 220299662, 0.03809974, 0.6196003, -0.040501773, 0.78294533, -0.028801883, 0.0055898214, 0.07618809, 0
324, 220316329, 0.038128227, 0.6196029, -0.04052318, 0.78294086, -0.02228364, 0.0072326837, 0.05416107, 0
325, 220332996, 0.03816588, 0.619621, -0.040549595, 0.7829233, -0.03827078, 0.003080288, 0.068748474, 0
326, 220349663, 0.038250703, 0.6196233, -0.04061346, 0.782914, -0.03343385, -0.009511175, 0.061483383, 0
327, 220366330, 0.038323, 0.6196412, -0.040660653, 0.7828939, -0.026570905, -0.0036014083, 0.070459366, 0
328, 220382997, 0.038216386, 0.6196569, -0.0405795, 0.7828909, -0.026166104, 0.0010415005, 0.05504036, 0
329, 220399664, 0.03841624, 0.6196701, -0.040720463, 0.7828634, -0.013636069, 0.0051865205, 0.06757736, 0
330, 220416331, 0.03849784, 0.61969066, -0.040775836, 0.78284025, -0.017847475, 0.012312183, 0.05485058, 0
331, 220432998, 0.03851583, 0.6197207, -0.040776324, 0.78281564, -0.022756469, 0.0033030186, 0.06844044, 0
332, 220449665, 0.038611207, 0.61974126, -0.040854707, 0.7827904, -0.013958377, -0.007849803, 0.053525925, 0
333, 220466332, 0.038614027, 0.6197563, -0.0408707, 0.78277755, -0.038149428, 0.0037127738, 0.058717728, 0
334, 220482999, 0.038634665, 0.61976427, -0.040886436, 0.7827694, -0.024662297, -0.0032851654, 0.058969498, 0
335, 220499666, 0.03859284, 0.6197828, -0.040846065, 0.78275883, -0.023197709, -8.565575E-4, 0.06647587, 0
336, 220516333, 0.038614087, 0.61980206, -0.040841665, 0.78274286, -0.031404763, 0.010909919, 0.061039925, 0
337, 220533000, 0.038690798, 0.61982393, -0.04088835, 0.7827194, -0.025601039, 0.0028092226, 0.05445671, 0
338, 220549667, 0.038714364, 0.6198595, -0.040905967, 0.7826891, -0.017578918, 0.003925223, 0.05660534, 0
339, 220566334, 0.038742207, 0.6198875, -0.0409125, 0.78266513, -0.025182758, 1.9029334E-4, 0.060941696, 0
340, 220583001, 0.03879359, 0.6198885, -0.040943474, 0.7826601, -0.04871191, -6.33324E-4, 0.05586052, 0
341, 220599668, 0.038798027, 0.619877, -0.04095881, 0.78266835, -0.02806059, -0.0070156525, 0.053398132, 0
342, 220616335, 0.038903017, 0.6198616, -0.041035857, 0.7826713, -0.00914443, -0.0091738375, 0.0653429, 0
343, 220633002, 0.03880454, 0.6198632, -0.0409707, 0.7826783, -0.017102994, -0.011579787, 0.06122017, 0
344, 220649669, 0.038637955, 0.61989313, -0.04084429, 0.7826693, -0.03841766, 0.004710871, 0.06035614, 0
345, 220666336, 0.038608156, 0.61991584, -0.040822912, 0.78265387, -0.0061922623, 0.0065884916, 0.06116104, 0
346, 220683003, 0.03865616, 0.6199041, -0.040891986, 0.78265744, -0.03704635, 0.0068766554, 0.059767723, 0
347, 220699670, 0.038602453, 0.6198454, -0.040839683, 0.7827092, -0.032487687, 0.006179379, 0.06394291, 0
348, 220716337, 0.03874077, 0.6197532, -0.04088608, 0.782773, -0.018765531, 0.00993258, 0.071201324, 0
349, 220733004, 0.038806155, 0.61971265, -0.040888686, 0.7828017, -0.007073352, -0.020474011, 0.06036663, 0
350, 220749671, 0.039069448, 0.6196159, -0.040984135, 0.7828602, -0.07660243, 0.023608668, 0.084908485, 0
351, 220766338, 0.039726704, 0.6195297, -0.04140098, 0.7828735, -0.16831143, -0.018762404, 0.051556587, 0
352, 220783005, 0.04113157, 0.619427, -0.042482167, 0.7828244, -0.040092517, 0.0025340223, 0.06664944, 0
353, 220799672, 0.042297523, 0.61920834, -0.04322672, 0.78289443, 0.06040907, 0.048558693, 0.08775616, 0
354, 220816339, 0.042635918, 0.61911386, -0.04322784, 0.7829506, 0.09646097, -0.019533692, 0.050058365, 0
355, 220833006, 0.043367505, 0.61912084, -0.043517686, 0.7828888, -0.033107214, 0.036133245, 0.060666084, 0
356, 220849673, 0.044067305, 0.61899364, -0.04352532, 0.78295, -0.054525882, 0.038850043, 0.09611702, 0
357, 220866340, 0.04488925, 0.61847275, -0.0430998, 0.78333837, -0.18662639, 0.1267932, 0.17300987, 0
358, 220883007, 0.04631976, 0.6167635, -0.042699095, 0.7846236, 0.0529806, 0.06380267, 0.21828651, 0
359, 220899674, 0.047339186, 0.6138576, -0.04205792, 0.7868729, 0.2263057, -0.12513465, 0.25965977, 0
360, 220916341, 0.048096742, 0.6111116, -0.04188394, 0.7889711, 0.31286076, -0.20708764, 0.3178873, 0
361, 220933008, 0.048219375, 0.61021173, -0.042980798, 0.7896007, 0.32394832, -0.2726007, 1.0987644, 0
362, 220949675, 0.04784631, 0.61153907, -0.045737192, 0.78844094, 0.55708236, -0.403699, 1.2846308, 0
363, 220966342, 0.046730753, 0.6137815, -0.049417913, 0.78654087, 0.76733476, -0.61373305, 1.3067532, 0
364, 220983009, 0.045930974, 0.6159009, -0.05384959, 0.7846379, 0.8146839, -0.5154432, 1.9236135, 0
365, 220999676, 0.045400538, 0.61727995, -0.0592441, 0.78319514, 0.3397088, -0.39317337, 2.1447735, 0
366, 221016343, 0.045350865, 0.6177198, -0.06393456, 0.782482, 0.17459734, -0.17263155, 1.9929085, 0
367, 221033010, 0.046034083, 0.616617, -0.06714958, 0.7830424, 0.12332475, -0.011084817, 1.6206236, 0
368, 221049677, 0.04777974, 0.6136135, -0.068258144, 0.78519845, -0.02937642, 0.014472296, 1.5335436, 0
369, 221066344, 0.050770912, 0.60942084, -0.06786637, 0.7883037, 0.23069966, 0.29936403, 1.9651318, 0
370, 221083011, 0.053434428, 0.6050894, -0.06718239, 0.79151624, 0.23114078, 0.37074816, 2.68328, 0
371, 221099678, 0.0550516, 0.6011842, -0.067542866, 0.79434556, 0.12106213, 0.20369236, 2.91076, 0
372, 221116345, 0.055739973, 0.59776324, -0.06914517, 0.79673773, 0.0037634552, 0.24596408, 2.3403835, 0
373, 221133012, 0.056093097, 0.59434795, -0.07116171, 0.799087, -0.11131633, 0.39284012, 1.795393, 0
374, 221149679, 0.05661206, 0.58993036, -0.07262961, 0.80218583, -0.36973518, 0.6091071, 1.3425055, 0
375, 221166346, 0.057308357, 0.5843297, -0.07272834, 0.80621666, -0.7009802, 0.8083659, 1.007637, 0
376, 221183013, 0.058144353, 0.5780392, -0.07137516, 0.8107994, -0.920204, 0.87816626, 0.8393345, 0
377, 221199680, 0.058968704, 0.5715138, -0.06909703, 0.815549, -1.0019835, 0.8010194, 0.74921227, 0
378, 221216347, 0.059546802, 0.5651412, -0.06679126, 0.8201273, -0.9514199, 0.7057753, 0.85764503, 0
379, 221233014, 0.0596522, 0.5589072, -0.06491449, 0.82453054, -0.7951982, 0.60482687, 0.6586933, 0
380, 221249681, 0.059344087, 0.5528961, -0.063485704, 0.828706, -0.7923, 0.63130057, 0.27251148, 0
381, 221266348, 0.058938827, 0.5466151, -0.061997198, 0.83300334, -0.8417241, 0.710733, -0.10297012, 0
382, 221283015, 0.058706157, 0.54007584, -0.0597927, 0.8374346, -0.9032739, 0.75356096, -0.43350697, 0
383, 221299682, 0.05873877, 0.5335775, -0.0570259, 0.8417797, -1.004807, 0.76694053, -0.42726517, 0
384, 221316349, 0.05859726, 0.5269701, -0.053706117, 0.8461588, -1.0399079, 0.7088226, -0.3917446, 0
385, 221333016, 0.05808672, 0.52035457, -0.05011884, 0.8504971, -0.95020556, 0.52104634, -0.25576305, 0
386, 221349683, 0.05716335, 0.5138687, -0.04668663, 0.8546883, -0.727052, 0.37224847, -0.42446613, 0
387, 221366350, 0.056112483, 0.5072675, -0.043126367, 0.85887796, -0.6396393, 0.22426246, -0.54570484, 0
388, 221383017, 0.054880872, 0.5004267, -0.039786056, 0.8631214, -0.44731128, 0.12534615, -0.6214428, 0
389, 221399684, 0.05357558, 0.49397063, -0.036810156, 0.86704546, -0.4500304, 0.06606261, -0.66571045, 0
390, 221416351, 0.05217359, 0.48813018, -0.034391165, 0.870531, -0.34242758, -0.019513687, -0.6001682, 0
391, 221433018, 0.050353754, 0.4823767, -0.03266796, 0.8739053, -0.2657912, -0.03520966, -0.6094246, 0
392, 221449685, 0.048276983, 0.47628915, -0.03120217, 0.8774079, -0.34437662, 0.08917206, -0.8017483, 0
393, 221466352, 0.04625266, 0.46977925, -0.029532654, 0.88107675, -0.24496602, -0.060133073, -0.98127365, 0
394, 221483019, 0.04467261, 0.46312922, -0.027203642, 0.88474625, -0.3334279, 0.07421119, -0.96612644, 0
395, 221499686, 0.043249656, 0.45648435, -0.024511563, 0.88834155, -0.23698308, 0.044232626, -0.80324554, 0
396, 221516353, 0.041332975, 0.45056373, -0.022057492, 0.8915141, -0.21009839, 0.016983422, -0.78665733, 0
397, 221533020, 0.039017078, 0.44586095, -0.020056935, 0.89402664, -0.1818595, -0.07719279, -0.6130161, 0
398, 221549687, 0.036906984, 0.44155717, -0.018565841, 0.8962815, -0.039106153, -0.17296568, -0.47374153, 0
399, 221566354, 0.034993324, 0.4363806, -0.017293544, 0.8989152, -0.11903374, -0.1670907, -0.324996, 0
400, 221583021, 0.033100817, 0.4301885, -0.016421935, 0.9019826, -0.26636785, -0.15392189, -0.008317947, 0
401, 221599688, 0.030995246, 0.42438397, -0.016386459, 0.9048034, -0.34500417, -0.17741062, -0.0545187, 0
402, 221616355, 0.028554045, 0.41933733, -0.016520454, 0.9072311, -0.28856564, -0.0062112994, -0.37602043, 0
403, 221633022, 0.025930583, 0.4146198, -0.01606544, 0.9094834, -0.14527914, -0.006387658, -0.6495075, 0
404, 221649689, 0.023731958, 0.40984562, -0.014904413, 0.9117244, 0.0020654753, -0.110859066, -0.7662983, 0
405, 221666356, 0.022140909, 0.4041252, -0.013005548, 0.9143432, 0.22954264, -0.18484823, -0.6846018, 0
406, 221683023, 0.021164475, 0.39755636, -0.010667463, 0.91727173, 0.4749586, -0.29557064, -0.7171469, 0
407, 221699690, 0.020401273, 0.3915812, -0.0083597675, 0.91987956, 0.47613248, -0.2946909, -0.61687183, 0
408, 221716357, 0.019453038, 0.38657284, -0.0065199286, 0.9220307, 0.33863726, -0.3280762, -0.47223473, 0
409, 221733024, 0.01839149, 0.38242814, -0.0052609043, 0.9237873, 0.4015417, -0.3095066, -0.38675117, 0
410, 221749691, 0.017124258, 0.37861288, -0.004420292, 0.92538637, 0.3998518, -0.25828186, -0.3293972, 0
411, 221766358, 0.01585784, 0.37517998, -0.0039457153, 0.92680794, 0.19427827, -0.2429036, -0.25375843, 0
412, 221783025, 0.01469365, 0.37125584, -0.0033647695, 0.9284084, 0.14224574, -0.1699518, -0.22499752, 0
413, 221799692, 0.013757113, 0.36662266, -0.0025160157, 0.93026465, 0.0429569, -0.18309835, -0.35099792, 0
414, 221816359, 0.013286744, 0.3614772, -0.0012415409, 0.93228555, 0.22446704, -0.14836408, -0.52216053, 0
415, 221833026, 0.013306498, 0.35611656, 3.7479537E-4, 0.9343468, 0.40461928, -0.1801574, -0.5849228, 0
416, 221849693, 0.0136039, 0.35107824, 0.0020606446, 0.9362452, 0.38249, -0.16036052, -0.44960022, 0
417, 221866360, 0.013936857, 0.34629846, 0.0036845957, 0.9380136, 0.41321406, -0.1902532, -0.3772154, 0
418, 221883027, 0.014154681, 0.34223744, 0.004944675, 0.93949383, 0.3371365, -0.20504022, -0.41208363, 0
419, 221899694, 0.0137015255, 0.33912423, 0.005705069, 0.9406246, 0.3902124, -0.14919928, -0.41494656, 0
420, 221916361, 0.012871656, 0.33644745, 0.0061359773, 0.94159436, 0.5437951, -0.14043023, -0.6738224, 0
421, 221933028, 0.012266957, 0.33378342, 0.0064758593, 0.9425479, 0.6628012, -0.17750245, -0.82675934, 0
422, 221949695, 0.011971392, 0.3306133, 0.0068811197, 0.9436654, 0.6860157, -0.18796672, -0.7848463, 0
423, 221966362, 0.011977932, 0.32731897, 0.00737124, 0.9448093, 1.0627403, -0.25615054, -0.94347763, 0
424, 221983029, 0.012360147, 0.32466564, 0.007886931, 0.9457153, 1.219384, -0.266377, -1.1807566, 0
425, 221999696, 0.012657225, 0.32354692, 0.008284871, 0.9460914, 1.1451207, -0.3091153, -1.1129198, 0
426, 222016363, 0.012813628, 0.3242282, 0.008473741, 0.9458541, 1.2110873, -0.3560203, -1.1027718, 0
427, 222033030, 0.012971526, 0.32571074, 0.008386062, 0.94534326, 1.0745851, -0.38100013, -1.0500956, 0
428, 222049697, 0.013045592, 0.32696977, 0.008192848, 0.94490933, 0.88149786, -0.32161152, -0.95637035, 0
429, 222066364, 0.013330651, 0.3277738, 0.00811252, 0.9446273, 0.8672678, -0.3042113, -1.0718069, 0
430, 222083031, 0.014049465, 0.32842687, 0.008194388, 0.94438934, 1.0821648, -0.35563764, -1.0914116, 0
431, 222099698, 0.01471003, 0.32988298, 0.0080398945, 0.943873, 1.177344, -0.38941932, -1.0248833, 0
432, 222116365, 0.015106435, 0.3327808, 0.0073002754, 0.942855, 1.1697323, -0.39603984, -0.99835396, 0
433, 222133032, 0.014963986, 0.33684427, 0.0059273266, 0.9414229, 1.1955235, -0.35915154, -1.1368742, 0
434, 222149699, 0.014382152, 0.3423855, 0.0040081195, 0.93944114, 1.111147, -0.25880292, -1.4743118, 0
435, 222166366, 0.013999617, 0.34885526, 0.0021182396, 0.93706965, 1.1964115, -0.20165288, -1.9102163, 0
436, 222183033, 0.014745928, 0.35514605, 9.094015E-4, 0.93469405, 1.279369, -0.23949228, -2.0423841, 0
437, 222199700, 0.016727816, 0.36034432, 5.4495607E-4, 0.9326692, 1.065322, -0.3120977, -1.894485, 0
438, 222216367, 0.018950488, 0.36515477, 5.016234E-4, 0.9307538, 0.66595405, -0.30837417, -1.4665203, 0
439, 222233034, 0.020548489, 0.37120736, 5.740128E-5, 0.92832273, 0.535322, -0.35691264, -1.3780432, 0
440, 222249701, 0.021096054, 0.37905052, -0.0013498211, 0.92513454, 0.5809226, -0.3764688, -1.47608, 0
441, 222266368, 0.02067429, 0.38871408, -0.004008219, 0.9211179, 0.5168326, -0.3540041, -1.830862, 0
442, 222283035, 0.020295184, 0.39948836, -0.007267752, 0.91648495, 0.50088227, -0.38294622, -2.237958, 0
443, 222299702, 0.021514444, 0.40955114, -0.009834107, 0.9119804, 0.42591816, -0.4107142, -2.211958, 0
444, 222316369, 0.024446849, 0.41785592, -0.011353159, 0.9081134, 0.07252599, -0.4189158, -1.7956133, 0
445, 222333036, 0.028096529, 0.42484263, -0.012477017, 0.90474516, -0.3133755, -0.34418467, -1.2144165, 0
446, 222349703, 0.030833198, 0.4323019, -0.014244298, 0.9010891, -0.54930013, -0.18786281, -1.1150713, 0
447, 222366370, 0.032121588, 0.44193685, -0.01749936, 0.89630014, -0.65548086, -0.08347856, -1.2416563, 0
448, 222383037, 0.03270681, 0.45310214, -0.021497712, 0.8905992, -0.6605209, 0.052467395, -1.5187883, 0
449, 222399704, 0.034152444, 0.4646981, -0.025263999, 0.88444966, -0.5946571, -0.06040953, -1.5753918, 0
450, 222416371, 0.03793187, 0.47483942, -0.027770072, 0.878816, -0.5639295, -0.13783401, -1.2460909, 0
451, 222433038, 0.04365937, 0.48207417, -0.028795373, 0.87456805, -0.9397562, -0.023464112, -0.49401855, 0
452, 222449705, 0.04933519, 0.48760846, -0.029647265, 0.8711632, -1.4316881, 0.2137097, 0.23542786, 0
453, 222466372, 0.053307284, 0.49386394, -0.031909678, 0.86731696, -1.4318341, 0.36346102, 0.53233624, 0
454, 222483039, 0.055195097, 0.5023352, -0.035979412, 0.8621592, -1.1009358, 0.3292004, 0.42498875, 0
455, 222499706, 0.056355093, 0.5123649, -0.041032646, 0.85593385, -0.6199343, 0.22966845, 0.13678074, 0
456, 222516373, 0.057964668, 0.52207035, -0.045994826, 0.8496866, -0.3709212, 0.16387123, 0.10766888, 0
457, 222533040, 0.060411163, 0.5304181, -0.05015607, 0.8440923, -0.58069545, 0.2964869, 0.53002167, 0
458, 222549707, 0.06303842, 0.537706, -0.053703867, 0.8390558, -0.985862, 0.45789292, 1.1847725, 0
459, 222566374, 0.06512175, 0.5446821, -0.057218414, 0.8341504, -1.2311711, 0.60181046, 1.8661594, 0
460, 222583041, 0.06620251, 0.55150855, -0.06123241, 0.8292807, -0.8685574, 0.51061153, 2.216506, 0
461, 222599708, 0.06607356, 0.5586663, -0.06590254, 0.8241258, -0.78159326, 0.507665, 2.0294323, 0
462, 222616375, 0.06556003, 0.56561, -0.07066696, 0.8190198, -0.4631879, 0.4692981, 1.6091547, 0
463, 222633042, 0.06520019, 0.5719426, -0.074955985, 0.81425565, -0.3832479, 0.48766354, 1.258295, 0
464, 222649709, 0.06523814, 0.5773, -0.07802779, 0.81017303, -0.46992263, 0.67120284, 1.2677355, 0
465, 222666376, 0.06521653, 0.5812774, -0.07976565, 0.807156, -0.60734534, 0.77553964, 1.655262, 0
466, 222683043, 0.06471648, 0.584493, -0.08076801, 0.804771, -0.62357324, 0.7591839, 2.0306444, 0
467, 222699710, 0.06390124, 0.58742, -0.08137338, 0.80264115, -0.2830922, 0.43120307, 1.8471165, 0
468, 222716377, 0.06348599, 0.59018683, -0.08174964, 0.8006036, 0.062908255, 0.22029169, 1.4186678, 0
469, 222733044, 0.06345144, 0.5928979, -0.082223944, 0.7985521, 0.20499064, 0.11145328, 1.2268162, 0
470, 222749711, 0.063329145, 0.59566206, -0.083035305, 0.7964179, 0.14779082, 0.13310012, 1.2580767, 0
471, 222766378, 0.0628149, 0.5985744, -0.08410098, 0.79416007, 0.008847694, 0.1336724, 1.4110765, 0
472, 222783045, 0.061790567, 0.6016296, -0.085529216, 0.7917757, -0.029888883, 0.13814344, 1.3730402, 0
473, 222799712, 0.06061101, 0.6046145, -0.08680883, 0.78945047, 0.06379164, 0.13391633, 1.0298777, 0
474, 222816379, 0.05968563, 0.6070965, -0.087255195, 0.78756475, 0.07771538, 0.1148946, 0.77623844, 0
475, 222833046, 0.059069987, 0.6089644, -0.086632945, 0.7862366, 0.23428988, -0.012539803, 0.8056526, 0
476, 222849713, 0.05836577, 0.61034447, -0.08567272, 0.78532374, 0.21871921, -0.1315513, 0.98737717, 0
477, 222866380, 0.057282016, 0.61160606, -0.084976315, 0.7844973, 0.21593466, -0.18503532, 1.0855455, 0
478, 222883047, 0.055872597, 0.61363447, -0.0854433, 0.78296286, 0.27852055, -0.3873916, 0.97018814, 0
479, 222899714, 0.054742653, 0.6159927, -0.086761825, 0.7810434, 0.33639556, -0.36406693, 0.82066727, 0
480, 222916381, 0.053955197, 0.61755425, -0.088230476, 0.7796994, 0.24090447, -0.19208781, 0.6683235, 0
481, 222933048, 0.05363037, 0.61845094, -0.08936032, 0.778882, 0.020992292, -0.00966199, 0.49106407, 0
482, 222949715, 0.053610597, 0.6188193, -0.08987254, 0.7785318, -0.028560434, 0.1292905, 0.21506119, 0
483, 222966382, 0.05380654, 0.61908025, -0.08973331, 0.7783268, -0.055420637, 0.14152952, 0.0076875687, 0
484, 222983049, 0.054289438, 0.6192071, -0.08886231, 0.7782925, -0.05735305, 0.120882906, -0.012655258, 0
485, 222999716, 0.054915145, 0.6189773, -0.08753062, 0.7785819, -0.103890374, 0.10377207, 0.124565125, 0
486, 223016383, 0.055283464, 0.6188176, -0.0861341, 0.7788385, -0.043942463, 0.07305177, 0.51335526, 0
487, 223033050, 0.055619065, 0.6186525, -0.084416635, 0.77913374, -0.03791558, 0.08796213, 0.8520317, 0
488, 223049717, 0.056254696, 0.61807823, -0.0819264, 0.7798095, 0.03691808, 0.122623205, 1.4554644, 0
489, 223066384, 0.056912158, 0.6163399, -0.07919524, 0.78141814, -0.080099314, -0.02590353, 1.9551878, 0
490, 223083051, 0.057074975, 0.6148702, -0.07764126, 0.782719, 0.11384982, -0.13294151, 0.98773956, 0
491, 223099718, 0.056558833, 0.614621, -0.07725737, 0.7829901, 0.08216258, -0.16402313, -0.290596, 0
492, 223116385, 0.05630434, 0.61549085, -0.076962546, 0.7823539, 0.1680443, -0.23334412, -1.1629725, 0
493, 223133052, 0.056689274, 0.61597013, -0.07578978, 0.7820634, 0.20986354, -0.2036726, -1.0019703, 0
494, 223149719, 0.057520524, 0.6159776, -0.07407928, 0.7821607, -0.24701227, 0.07657666, 0.4035883, 0
495, 223166386, 0.057997055, 0.61599183, -0.0728001, 0.78223443, -0.2794961, 0.09738102, 1.1407232, 0
496, 223183053, 0.058423884, 0.61527956, -0.071725115, 0.7828622, 0.097146645, -0.036450215, 0.5103512, 0
497, 223199720, 0.05907546, 0.6142653, -0.070622884, 0.7837096, 0.11038963, -0.0011726607, -0.08900356, 0
498, 223216387, 0.059632655, 0.6137386, -0.06938553, 0.7841904, 0.08845911, 0.013620321, -0.24570084, 0
499, 223233054, 0.06035435, 0.6132883, -0.06796865, 0.7846115, 0.008768169, -0.05950742, 0.002875328, 0
500, 223249721, 0.060989268, 0.6128714, -0.066711895, 0.784996, -0.0085799955, -0.0565466, 0.2944708, 0
501, 223266388, 0.061512526, 0.6126062, -0.06581823, 0.7852377, 0.079613015, -0.115693934, 0.1844244, 0
502, 223283055, 0.061965797, 0.6123952, -0.06514574, 0.7854226, 0.0131025845, -0.079895765, 0.096263885, 0
503, 223299722, 0.06225352, 0.6122715, -0.06470904, 0.7855323, -0.04576535, -0.102851555, 0.19008064, 0
504, 223316389, 0.062363226, 0.6121533, -0.06463437, 0.78562194, 0.06712075, -0.17890145, 0.3117218, 0
505, 223333056, 0.06235247, 0.61195105, -0.06495591, 0.7857538, 0.07840364, -0.18747208, 0.43034458, 0
506, 223349723, 0.062067155, 0.61183316, -0.065533906, 0.78582025, 0.104124285, -0.18248595, 0.6930065, 0
507, 223366390, 0.06153674, 0.612148, -0.066732086, 0.78551567, 0.2633322, -0.33107322, 1.3087578, 0
508, 223383057, 0.061025303, 0.6129449, -0.06854949, 0.78477734, 0.2438091, -0.5059093, 2.1237268, 0
509, 223399724, 0.060523096, 0.6131438, -0.07029845, 0.7845061, 0.352254, -0.39623743, 2.975048, 0
510, 223416391, 0.060274757, 0.6118383, -0.070992626, 0.7854815, 0.12590988, -0.2314622, 3.6761065, 0
511, 223433058, 0.06051924, 0.6086937, -0.06960054, 0.78802615, 0.2786507, -0.16972138, 4.251753, 0
512, 223449725, 0.060825333, 0.60360396, -0.066612236, 0.7921651, 0.41899016, -0.2431831, 4.562045, 0
513, 223466392, 0.061584473, 0.596691, -0.06268512, 0.7976452, 0.5792783, -0.34272024, 4.4625835, 0
514, 223483059, 0.06236292, 0.5883486, -0.058705382, 0.80405897, 0.57017374, -0.3035159, 4.1760178, 0
515, 223499726, 0.06253728, 0.5800951, -0.055701736, 0.81023204, 0.3832518, -0.21288162, 3.7367039, 0
516, 223516393, 0.061540816, 0.5730552, -0.054555792, 0.81537986, 0.009879014, -0.008427779, 3.3776245, 0
517, 223533060, 0.059649814, 0.5665192, -0.054446, 0.82008153, -0.3173815, 0.21157093, 2.5927744, 0
518, 223549727, 0.057512056, 0.5597801, -0.05427894, 0.82485926, -0.47191116, 0.30475628, 1.6906977, 0
519, 223566394, 0.056038793, 0.5520347, -0.052969895, 0.83024794, -0.54816484, 0.41335693, 0.90141106, 0
520, 223583061, 0.055309724, 0.5426837, -0.050230037, 0.83660764, -0.67942894, 0.5634536, 0.46748924, 0
521, 223599728, 0.055213954, 0.5320489, -0.046242453, 0.8436453, -0.80882096, 0.5906786, 0.13741589, 0
522, 223616395, 0.055593114, 0.52042055, -0.04157891, 0.8510835, -0.85423666, 0.56845254, 0.06550884, 0
523, 223633062, 0.055817813, 0.5083205, -0.03685723, 0.8585665, -0.8643025, 0.57606196, -0.12115002, 0
524, 223649729, 0.055145275, 0.4971775, -0.033052284, 0.86526376, -0.8906952, 0.5675404, -0.38115597, 0
525, 223666396, 0.05342468, 0.4877006, -0.030374536, 0.87084526, -0.82387674, 0.51408476, -0.8616066, 0
526, 223683063, 0.051182862, 0.47968847, -0.02844275, 0.8754829, -0.6368746, 0.44026676, -1.2835646, 0
527, 223699730, 0.048871256, 0.47223303, -0.026684579, 0.8797135, -0.70055014, 0.4516097, -1.400176, 0
528, 223716397, 0.046726383, 0.4647242, -0.024701184, 0.8838766, -0.77372074, 0.42575127, -1.3557863, 0
529, 223733064, 0.044845268, 0.45673996, -0.022431374, 0.888186, -0.78761816, 0.4825171, -1.3746281, 0
530, 223749731, 0.04289387, 0.44882125, -0.020294603, 0.89236075, -1.0596313, 0.5633928, -1.3423328, 0
531, 223766398, 0.04062239, 0.44132048, -0.018302973, 0.8962428, -1.0725764, 0.57375133, -1.3518782, 0
532, 223783065, 0.03758044, 0.43487704, -0.016684148, 0.8995506, -1.0730846, 0.5231745, -1.395544, 0
533, 223799732, 0.034270078, 0.42916396, -0.015152158, 0.9024492, -0.8719448, 0.4472114, -1.5888472, 0
534, 223816399, 0.03142883, 0.42295867, -0.0129621485, 0.90551114, -0.68532974, 0.38975886, -1.8154068, 0
535, 223833066, 0.029417386, 0.4156418, -0.009745311, 0.90900034, -0.46506825, 0.27082914, -1.8293381, 0
536, 223849733, 0.028151305, 0.4074163, -0.005931303, 0.9127894, -0.46233794, 0.14744498, -1.7360983, 0
537, 223866400, 0.027181344, 0.39926633, -0.0018650055, 0.9164301, -0.5165584, 0.09414652, -1.4391785, 0
538, 223883067, 0.02589331, 0.39206567, 0.0017170432, 0.9195713, -0.32426035, 0.015421988, -1.3017931, 0
539, 223899734, 0.023905113, 0.38635352, 0.0044308626, 0.9220304, -0.22853288, -0.071445145, -1.2328949, 0
540, 223916401, 0.021942949, 0.38202128, 0.006084992, 0.92387307, 0.09208566, -0.2833742, -1.0443058, 0
541, 223933068, 0.020155353, 0.37720776, 0.0072729876, 0.92588073, 0.29922208, -0.2836491, -1.0340252, 0
542, 223949735, 0.018899351, 0.37156177, 0.008524875, 0.9281767, 0.33449712, -0.19157217, -1.1495066, 0
543, 223966402, 0.017995121, 0.36552808, 0.009811051, 0.9305747, 0.35203493, -0.16154161, -1.164463, 0
544, 223983069, 0.017052392, 0.36020038, 0.011108644, 0.9326532, 0.1797622, -0.07419141, -1.130847, 0
545, 223999736, 0.01611146, 0.3557949, 0.01255223, 0.934341, 0.31649047, -0.038890194, -1.1671696, 0
546, 224016403, 0.015155077, 0.35216486, 0.013987384, 0.93571085, 0.5527379, -0.22174305, -1.0449123, 0
547, 224033070, 0.014476678, 0.34904367, 0.01498061, 0.9368751, 0.64390266, -0.40165162, -0.6508503, 0
548, 224049737, 0.014026607, 0.34518236, 0.015713608, 0.9382994, 0.6390602, -0.388833, -0.49465752, 0
549, 224066404, 0.014005086, 0.34036845, 0.01655033, 0.9400422, 0.74039966, -0.38744572, -0.5316658, 0
550, 224083071, 0.014190171, 0.33615804, 0.017071249, 0.941544, 0.7703852, -0.41907442, -0.4501543, 0
551, 224099738, 0.014132274, 0.33299533, 0.01714653, 0.94266677, 0.622253, -0.32948512, -0.35117626, 0
552, 224116405, 0.013750774, 0.33071846, 0.01688083, 0.94347835, 0.5780337, -0.29880628, -0.42102337, 0
553, 224133072, 0.013588813, 0.32887223, 0.0165814, 0.94413114, 0.54412705, -0.26211643, -0.46117306, 0
554, 224149739, 0.013787675, 0.32689276, 0.016473223, 0.9448173, 0.31311744, -0.17304926, -0.34599972, 0
555, 224166406, 0.01425354, 0.3244898, 0.016447425, 0.94563884, 0.19236375, -0.12084612, -0.16164494, 0
556, 224183073, 0.014892824, 0.3216761, 0.01643951, 0.9465899, 0.16753015, -0.050294865, -0.15537071, 0
557, 224199740, 0.015570648, 0.31828782, 0.016744183, 0.9477183, 0.08248889, 0.049081244, -0.26510048, 0
558, 224216407, 0.015665786, 0.31495294, 0.017300565, 0.9488204, 0.19367334, 0.03861102, -0.20025253, 0
559, 224233074, 0.014877788, 0.31310636, 0.017570348, 0.94943905, 0.36281225, -0.034589782, -0.26631165, 0
560, 224249741, 0.013493962, 0.3127542, 0.017492872, 0.9495772, 0.62929, -0.05872239, -0.42845535, 0
561, 224266408, 0.012324668, 0.3128243, 0.017502202, 0.9495699, 0.8662561, -0.02088213, -0.6058073, 0
562, 224283075, 0.011567595, 0.3121829, 0.017734004, 0.94978607, 0.79039824, 0.009963243, -0.751935, 0
563, 224299742, 0.011253379, 0.31099078, 0.018163446, 0.9501728, 0.7894487, 0.009737136, -0.868021, 0
564, 224316409, 0.011174752, 0.30953333, 0.018808784, 0.950637, 0.8264917, -0.00717277, -0.9519243, 0
565, 224333076, 0.011213918, 0.30878264, 0.019561445, 0.9508655, 0.6839693, -0.051712055, -0.7580185, 0
566, 224349743, 0.011120967, 0.3088961, 0.020120611, 0.95081806, 0.5408085, -0.17908989, -0.34428787, 0
567, 224366410, 0.010773999, 0.30980188, 0.020245964, 0.9505245, 0.4545714, -0.2530372, -0.0047340393, 0
568, 224383077, 0.010226973, 0.3110127, 0.019944627, 0.9501414, 0.3162747, -0.27555007, -0.03961563, 0
569, 224399744, 0.010042561, 0.3118705, 0.019575918, 0.94987, 0.39801311, -0.25621542, -0.22924042, 0
570, 224416411, 0.010504191, 0.3120153, 0.019460514, 0.9498197, 0.600211, -0.25368083, -0.37957764, 0
571, 224433078, 0.011417668, 0.31196317, 0.019419856, 0.9498271, 0.5202745, -0.2189474, -0.41566563, 0
572, 224449745, 0.012003459, 0.3126005, 0.01921754, 0.94961435, 0.26082832, -0.10370256, -0.42120743, 0
573, 224466412, 0.011817769, 0.3146376, 0.018484546, 0.9489584, 0.2642084, -0.10644736, -0.4165249, 0
574, 224483079, 0.011096023, 0.31756562, 0.017197166, 0.9480154, 0.44566515, -0.11807858, -0.61830044, 0
575, 224499746, 0.010331918, 0.32055387, 0.015754504, 0.9470429, 0.5468673, -0.017994257, -1.0195456, 0
576, 224516413, 0.009829313, 0.3233938, 0.014605463, 0.94610083, 0.6109111, 0.060497936, -1.4205055, 0
577, 224533080, 0.010088805, 0.32598862, 0.014235956, 0.9452127, 0.74439186, 0.02453938, -1.6425505, 0
578, 224549747, 0.010806499, 0.3286019, 0.014568128, 0.9442944, 0.6317789, -0.0467783, -1.3532972, 0
579, 224566414, 0.011257487, 0.33253723, 0.014751932, 0.94290775, 0.5313446, -0.23350368, -0.9076624, 0
580, 224583081, 0.010883978, 0.3376869, 0.014090618, 0.9410903, 0.66049784, -0.32999626, -0.694355, 0
581, 224599748, 0.00957494, 0.34454146, 0.011808169, 0.93864816, 0.8636346, -0.39164132, -1.0201359, 0
582, 224616415, 0.0078460155, 0.35290384, 0.008252611, 0.93559045, 0.97571677, -0.21194275, -1.6811752, 0
583, 224633082, 0.006879907, 0.3615537, 0.004946839, 0.9323129, 0.7893268, -0.07179918, -2.3214207, 0
584, 224649749, 0.0077149253, 0.36906227, 0.0031436847, 0.92936736, 0.5275364, -0.026626347, -2.2510486, 0
585, 224666416, 0.009509239, 0.37497726, 0.002536192, 0.9269818, 0.16061136, -0.051738486, -1.8412375, 0
586, 224683083, 0.011144751, 0.38069633, 0.0020869137, 0.9246306, -0.16382019, -0.061937332, -1.5320826, 0
587, 224699750, 0.012127039, 0.388125, 5.1347155E-4, 0.9215268, 0.07485225, -0.15919204, -1.4882174, 0
588, 224716417, 0.013143854, 0.3972887, -0.002238779, 0.91759676, 0.42243797, -0.26026428, -1.6741037, 0
589, 224733084, 0.015080651, 0.40701452, -0.0053722914, 0.9132814, 0.34905192, -0.20970646, -1.6217861, 0
590, 224749751, 0.0175888, 0.41616318, -0.008429858, 0.9090808, -0.07650001, -0.044392638, -1.4939451, 0
591, 224766418, 0.020256111, 0.42494866, -0.011519031, 0.90491754, -0.34345466, -0.023190929, -1.3224268, 0
592, 224783085, 0.022394396, 0.43432143, -0.015170556, 0.9003517, -0.45182443, 0.02022927, -1.0765734, 0
593, 224799752, 0.024149034, 0.44440386, -0.01924555, 0.89529425, -0.5827353, 0.105588816, -0.85109615, 0
594, 224816419, 0.026401607, 0.45407394, -0.022861369, 0.8902794, -0.32938197, 0.10027503, -0.83228874, 0
595, 224833086, 0.029642688, 0.4618099, -0.025447743, 0.8861182, -0.2515498, 0.06010685, -0.7120123, 0
596, 224849753, 0.0331147, 0.46816492, -0.027702002, 0.8825857, -0.4677711, 0.11244895, -0.2575426, 0
597, 224866420, 0.035696886, 0.47516307, -0.030788494, 0.8786342, -0.7375165, 0.22844209, 0.035434723, 0
598, 224883087, 0.036716983, 0.48391184, -0.034784794, 0.87365407, -0.79828644, 0.31808633, 0.13333797, 0
599, 224899754, 0.036553685, 0.4948534, -0.039402068, 0.8673128, -0.8322925, 0.26936185, 0.4046812, 0
600, 224916421, 0.035795428, 0.5060939, -0.044207443, 0.86060053, -0.778399, 0.19626552, 0.8543081, 0
601, 224933088, 0.034716487, 0.51625264, -0.04937651, 0.8543068, -0.72658753, 0.10361744, 1.2387018, 0
602, 224949755, 0.03384663, 0.52557105, -0.05500936, 0.8482946, -0.51676786, 0.06371336, 1.0533676, 0
603, 224966422, 0.033732414, 0.53327626, -0.05993096, 0.8431411, -0.39640614, 0.2526392, 0.5820112, 0
604, 224983089, 0.034618333, 0.53946, -0.06352699, 0.8388974, -0.37325624, 0.33944988, 0.5350971, 0
605, 224999756, 0.03538124, 0.5453086, -0.0667619, 0.83482313, -0.6724331, 0.4710684, 1.1859798, 0
606, 225016423, 0.03513277, 0.55196226, -0.07025957, 0.8301609, -1.0261974, 0.60113263, 1.7234383, 0
607, 225033090, 0.034304485, 0.5589864, -0.0737095, 0.8251814, -0.7760378, 0.47672027, 1.724988, 0
608, 225049757, 0.033581514, 0.56485295, -0.07667719, 0.82093495, -0.3020486, 0.29783905, 1.4019575, 0
609, 225066424, 0.033208564, 0.56962293, -0.07954259, 0.8173739, -0.21690483, 0.24030006, 1.3532457, 0
610, 225083091, 0.03259032, 0.57458645, -0.08296135, 0.8135759, -0.49769965, 0.3414999, 1.4812918, 0
611, 225099758, 0.03162736, 0.5800528, -0.08616756, 0.809391, -0.7027552, 0.5441579, 1.3829832, 0
612, 225116425, 0.030420719, 0.5851644, -0.08816714, 0.80553335, -0.59288144, 0.5448385, 1.3183937, 0
613, 225133092, 0.02943568, 0.5897738, -0.08905399, 0.80210346, -0.38888603, 0.21364674, 1.5214958, 0
614, 225149759, 0.028755058, 0.59393597, -0.08986789, 0.79896003, -0.13654283, -0.09586266, 1.8966322, 0
615, 225166426, 0.02801045, 0.59759104, -0.091230616, 0.7961014, -0.156341, -0.07269492, 1.7475977, 0
616, 225183093, 0.026995309, 0.6014293, -0.09282938, 0.7930554, -0.34861583, 0.14409944, 1.3213396, 0
617, 225199760, 0.025897829, 0.60528374, -0.09368918, 0.7900528, -0.40562254, 0.21887437, 0.9179754, 0
618, 225216427, 0.025133146, 0.60840553, -0.093140274, 0.7877411, -0.23316924, 0.1271646, 0.76024723, 0
619, 225233094, 0.02459166, 0.6104783, -0.0915762, 0.7863368, -0.11314335, -0.02780191, 0.99059296, 0
620, 225249761, 0.023776127, 0.61212975, -0.09007206, 0.7852509, -0.0072676493, -0.16521499, 1.255126, 0
621, 225266428, 0.022492632, 0.6141072, -0.089249216, 0.7838375, 0.22432101, -0.25192928, 0.97047615, 0
622, 225283095, 0.021225138, 0.6167589, -0.089129396, 0.7818017, 0.37263387, -0.32783696, 0.6112423, 0
623, 225299762, 0.02045736, 0.6194014, -0.0890374, 0.77974087, 0.38176554, -0.2299048, 0.45418262, 0
624, 225316429, 0.020252919, 0.6211525, -0.088127196, 0.7784556, 0.14924471, -0.120949745, 0.5210247, 0
625, 225333096, 0.020495418, 0.62242854, -0.08647868, 0.7776145, 0.091544114, -0.1730132, 0.76029205, 0
626, 225349763, 0.02064461, 0.62360364, -0.084885515, 0.7768444, 0.19758445, -0.24871427, 0.9087057, 0
627, 225366430, 0.020643389, 0.6247061, -0.083549395, 0.77610284, 0.27994177, -0.28677103, 0.86347103, 0
628, 225383097, 0.020657709, 0.62568474, -0.082430676, 0.77543336, 0.27576068, -0.2602393, 0.8393574, 0
629, 225399764, 0.020725206, 0.62637836, -0.081404276, 0.77498007, 0.16888289, -0.18550175, 0.885396, 0
630, 225416431, 0.020906797, 0.626778, -0.080267936, 0.77477044, 0.18044096, -0.14551303, 0.94954395, 0
631, 225433098, 0.021139622, 0.6268211, -0.07910008, 0.7748495, 0.21685709, -0.13802207, 0.85441303, 0
632, 225449765, 0.021311933, 0.62670463, -0.078074366, 0.7750431, 0.15860616, -0.08797417, 0.5242357, 0
633, 225466432, 0.021458646, 0.6267724, -0.07734339, 0.77505726, 0.07247445, -0.08422436, 0.13028145, 0
634, 225483099, 0.021516789, 0.6271312, -0.07685788, 0.7748139, -0.0059509226, -0.032600943, -0.19758034, 0
635, 225499766, 0.021604825, 0.6277878, -0.07630337, 0.7743344, -0.14067611, 0.024141202, -0.5159788, 0
636, 225516433, 0.022088021, 0.6286565, -0.075209, 0.77372277, -0.15146884, 0.041700035, -0.5408077, 0
637, 225533100, 0.022817558, 0.6292097, -0.073623426, 0.77340436, -0.11029287, 0.06707902, -0.17655754, 0
638, 225549767, 0.023689633, 0.6295539, -0.07184338, 0.7732655, -0.082750395, 0.06507412, 0.22593212, 0
639, 225566434, 0.024552232, 0.6295076, -0.06993165, 0.7734514, -0.05638189, -0.0042738053, 1.0009689, 0
640, 225583101, 0.025285196, 0.6289408, -0.06849226, 0.7740175, 0.020122169, -0.119651794, 1.2762461, 0
641, 225599768, 0.025615457, 0.6282242, -0.067774355, 0.77465147, 0.06713813, -0.14695768, 0.56383705, 0
642, 225616435, 0.025411375, 0.62797564, -0.06760287, 0.7748747, -0.014520971, -0.08726151, -0.14036942, 0
643, 225633102, 0.02533686, 0.62833565, -0.06729428, 0.7746121, 0.0782557, -0.2072463, -0.47525692, 0
644, 225649769, 0.025654722, 0.6283608, -0.06662956, 0.7746389, 0.10311151, -0.21881378, -0.05866146, 0
645, 225666436, 0.025907978, 0.62830406, -0.06631695, 0.77470315, -0.013639805, -0.116538815, 0.5654011, 0
646, 225683103, 0.02589027, 0.62832874, -0.0666528, 0.77465487, 0.017983528, -0.12729725, 0.63256645, 0
647, 225699770, 0.025783053, 0.6281504, -0.067223944, 0.7747537, 0.07743441, -0.105372906, 0.36683464, 0
648, 225716437, 0.025726639, 0.62794036, -0.067609064, 0.7748923, 0.13644144, -0.21798222, 0.296381, 0
649, 225733104, 0.025884174, 0.6275453, -0.06771119, 0.77519816, 0.24178973, -0.32490847, 0.687274, 0
650, 225749771, 0.026447777, 0.6268801, -0.0672357, 0.7757585, 0.27781466, -0.49556828, 1.3478079, 0
651, 225766438, 0.027661711, 0.6252396, -0.06571812, 0.7771688, 0.598053, -0.6397751, 2.0727768, 0
652, 225783105, 0.028548285, 0.62303025, -0.06433244, 0.7790249, 0.5906021, -0.68686795, 2.7845297, 0
653, 225799772, 0.028831279, 0.6217166, -0.06371498, 0.780114, 0.5639129, -0.7695145, 3.2535543, 0
654, 225816439, 0.028679581, 0.6202857, -0.06343382, 0.7812807, 0.6632974, -0.8189265, 3.768571, 0
655, 225833106, 0.028668635, 0.61775726, -0.062996276, 0.7833171, 0.7107167, -0.92402035, 4.3516674, 0
656, 225849773, 0.02918606, 0.6135701, -0.06222491, 0.7866437, 0.6981945, -0.9098567, 4.6612606, 0
657, 225866440, 0.030307831, 0.60696626, -0.06056439, 0.7918369, 0.5491288, -0.7484464, 4.4479113, 0
658, 225883107, 0.03224993, 0.5984687, -0.057922065, 0.7983986, 0.4947259, -0.63568, 3.893631, 0
659, 225899774, 0.034586187, 0.58915174, -0.05488466, 0.80541396, 0.18960555, -0.414777, 3.7007542, 0
660, 225916441, 0.036761656, 0.5794118, -0.051812038, 0.8125554, -0.26285058, -0.10853814, 3.4725456, 0
661, 225933108, 0.038551893, 0.56898576, -0.048847683, 0.8199895, -0.44932082, 0.07623499, 2.7156153, 0
662, 225949775, 0.04022699, 0.55803543, -0.0459879, 0.82756466, -0.6090377, 0.32796273, 1.7608328, 0
663, 225966442, 0.041872814, 0.5466059, -0.043064922, 0.83523315, -0.77874345, 0.58111393, 0.79727745, 0
664, 225983109, 0.043601543, 0.5348554, -0.0396991, 0.84288347, -0.9449702, 0.8011255, -0.029696465, 0
665, 225999776, 0.045422643, 0.522959, -0.03560658, 0.85040176, -1.0436362, 1.0045285, -0.5913229, 0
666, 226016443, 0.046769816, 0.5119735, -0.03136123, 0.85715353, -1.2030189, 1.0018114, -0.6779175, 0
667, 226033110, 0.0476901, 0.5019858, -0.027327863, 0.8631276, -1.200303, 0.9122336, -0.7407427, 0
668, 226049777, 0.048194643, 0.49190834, -0.02362922, 0.8689911, -1.0920401, 0.83820397, -0.8561344, 0
669, 226066444, 0.048941642, 0.4809789, -0.019727342, 0.87514293, -1.0610043, 0.8712293, -1.2389812, 0
670, 226083111, 0.05002084, 0.46932438, -0.015222708, 0.8814766, -1.1689388, 0.989211, -1.4763975, 0
671, 226099778, 0.051186558, 0.45758143, -0.009985233, 0.88763714, -1.2415044, 1.0185267, -1.4560566, 0
672, 226116445, 0.05176952, 0.44711852, -0.005128874, 0.8929608, -1.1545371, 0.7944446, -1.0955772, 0
673, 226133112, 0.05154308, 0.43757614, -0.0012001581, 0.89770204, -1.0533867, 0.7150706, -0.9249201, 0
674, 226149779, 0.050572786, 0.4283889, 0.0018425077, 0.90217644, -1.0297561, 0.65318954, -1.2101889, 0
675, 226166446, 0.049606774, 0.4194123, 0.004709147, 0.9064272, -1.191908, 0.64849705, -1.4438219, 0
676, 226183113, 0.048975915, 0.4096636, 0.007917739, 0.9108867, -1.1465029, 0.5816738, -1.3176098, 0
677, 226199780, 0.048780408, 0.39881855, 0.011274775, 0.9156622, -0.9330984, 0.46126786, -1.3575001, 0
678, 226216447, 0.048665076, 0.38778, 0.014378508, 0.9203541, -0.73561966, 0.4113103, -1.4911919, 0
679, 226233114, 0.04791936, 0.37795416, 0.016983707, 0.92442745, -0.9142033, 0.4413108, -1.5690317, 0
680, 226249781, 0.046282955, 0.37008294, 0.019122979, 0.9276482, -0.8552106, 0.36617398, -1.548933, 0
681, 226266448, 0.044084795, 0.36350992, 0.020957783, 0.9303107, -0.3847243, 0.16094145, -1.6208925, 0
682, 226283115, 0.042083625, 0.35696712, 0.022975625, 0.93288577, -0.06939677, 0.0034057926, -1.7446604, 0
683, 226299782, 0.040773578, 0.34972677, 0.0257076, 0.93561095, 0.063836865, -0.053307965, -1.8307176, 0
684, 226316449, 0.04011519, 0.3417453, 0.029073076, 0.9384859, 0.24075675, -0.15544221, -1.7018099, 0
685, 226333116, 0.03962823, 0.33337462, 0.03257439, 0.9413979, 0.38123333, -0.18678126, -1.515377, 0
686, 226349783, 0.038683645, 0.32579347, 0.035645287, 0.94397646, 0.5788476, -0.21589912, -1.5019121, 0
687, 226366450, 0.037335005, 0.32028738, 0.03791827, 0.9458247, 0.90632033, -0.34993306, -1.4525394, 0
688, 226383117, 0.036073044, 0.31657454, 0.039499737, 0.9470582, 1.109203, -0.43429315, -1.4105158, 0
689, 226399784, 0.035330314, 0.31355336, 0.040865563, 0.94803274, 1.1381918, -0.48222595, -1.1708307, 0
690, 226416451, 0.035363592, 0.31063977, 0.042187892, 0.9489323, 0.98632085, -0.46388146, -0.9781208, 0
691, 226433118, 0.035631623, 0.30738696, 0.043255053, 0.949933, 0.6644865, -0.2963895, -0.9321947, 0
692, 226449785, 0.036218945, 0.3034502, 0.04445909, 0.95112026, 0.487111, -0.2058867, -0.83651924, 0
693, 226466452, 0.0371074, 0.29927018, 0.045821957, 0.95234495, 0.47237837, -0.19620194, -0.69594955, 0
694, 226483119, 0.037488252, 0.2957565, 0.04667602, 0.9533857, 0.5115379, -0.15366106, -0.589447, 0
695, 226499786, 0.037473094, 0.29325655, 0.04735112, 0.954125, 0.4918551, -0.21771656, -0.38406658, 0
696, 226516453, 0.03736015, 0.292311, 0.04740129, 0.954417, 0.65343267, -0.2526097, -0.25550842, 0
697, 226533120, 0.03728988, 0.2916257, 0.04685666, 0.9546562, 0.8467825, -0.2914588, -0.17766285, 0
698, 226549787, 0.037469283, 0.2903703, 0.046037856, 0.9550716, 0.78347844, -0.22371474, -0.47500038, 0
699, 226566454, 0.038188044, 0.2882877, 0.045750137, 0.95568776, 0.56526804, -0.13081396, -0.64447117, 0
700, 226583121, 0.03897646, 0.28580725, 0.04605979, 0.9563858, 0.4111316, -0.052437615, -0.48712254, 0
701, 226599788, 0.038686603, 0.28439474, 0.04616411, 0.95681345, 0.33509645, -0.017272279, -0.30628777, 0
702, 226616455, 0.037417755, 0.28506526, 0.04549927, 0.95669615, 0.57280153, -0.04312836, -0.37674522, 0
703, 226633122, 0.03570718, 0.28654706, 0.04447485, 0.956367, 0.82234824, -0.0037644121, -0.6247034, 0
704, 226649789, 0.03438384, 0.2879572, 0.043646246, 0.95603013, 0.83379346, -0.038215805, -0.8949995, 0
705, 226666456, 0.034314513, 0.2882398, 0.04366283, 0.9559466, 0.79733646, -0.051374167, -0.79431725, 0
706, 226683123, 0.03493949, 0.28748494, 0.044323426, 0.95612097, 0.44303188, 0.013565148, -0.48966122, 0
707, 226699790, 0.035669412, 0.28678924, 0.045193303, 0.95626223, 0.111522265, 0.026698336, -0.24429893, 0
708, 226716457, 0.035898756, 0.2867432, 0.045789074, 0.9562389, 0.12103396, 0.0159151, -0.053462982, 0
709, 226733124, 0.03523006, 0.28807062, 0.04554813, 0.95587635, 0.25451607, 0.0052278563, -0.116558075, 0
710, 226749791, 0.034039766, 0.29059052, 0.044719588, 0.9551956, 0.37432587, 0.11353466, -0.57626724, 0
711, 226766458, 0.033206012, 0.29312402, 0.044292346, 0.9544706, 0.4638943, 0.12993652, -0.93743134, 0
712, 226783125, 0.033601724, 0.2950744, 0.04483436, 0.9538301, 0.54058063, 0.078298226, -0.96215725, 0
713, 226799792, 0.035068825, 0.29584885, 0.04625563, 0.95346963, 0.3577329, -0.012505794, -0.49197483, 0
714, 226816459, 0.03631603, 0.2967381, 0.047522455, 0.9530842, 0.07172881, -0.04528014, -0.009567261, 0
715, 226833126, 0.03664245, 0.2987563, 0.048001003, 0.9524169, 0.18708679, -0.06943146, 0.009283066, 0
716, 226849793, 0.035809904, 0.30249524, 0.04743294, 0.9512962, 0.4153028, -0.09514473, -0.26276016, 0
717, 226866460, 0.03479282, 0.30701938, 0.046383046, 0.94993544, 0.603535, -0.11910483, -0.66613674, 0
718, 226883127, 0.034027837, 0.31102502, 0.045403454, 0.94870675, 0.68477076, -0.093883455, -0.8023205, 0
719, 226899794, 0.033289857, 0.31495497, 0.044189878, 0.9474928, 0.5779245, -0.080732316, -1.0060453, 0
720, 226916461, 0.032170575, 0.31950143, 0.04239369, 0.94609016, 0.4891271, 0.006768685, -1.2645607, 0
721, 226933128, 0.030439246, 0.3250401, 0.040091194, 0.9443597, 0.5686468, 0.03886819, -1.6791391, 0
722, 226949795, 0.028961722, 0.331455, 0.037866212, 0.94226587, 0.6760379, -0.017205643, -1.8013391, 0
723, 226966462, 0.028045716, 0.33804923, 0.035988815, 0.9400218, 0.6235799, -0.07182299, -1.6216736, 0
724, 226983129, 0.0273038, 0.3446721, 0.034046464, 0.93770826, 0.33830202, -0.07725718, -1.2954206, 0
725, 226999796, 0.025660358, 0.35226235, 0.031086994, 0.93503296, 0.13630225, 0.008233589, -1.1676855, 0
726, 227016463, 0.022364344, 0.36211273, 0.026180036, 0.93149835, 0.09777305, 0.034393746, -1.4083881, 0
727, 227033130, 0.018122826, 0.37422153, 0.020104563, 0.9269442, 0.23734556, 0.10037003, -1.9401369, 0
728, 227049797, 0.014986849, 0.38658246, 0.014745872, 0.92201525, 0.35419852, 0.07750038, -2.37705, 0
729, 227066464, 0.014026336, 0.39663425, 0.011848239, 0.9177932, 0.29401267, 0.08060925, -2.1735415, 0
730, 227083131, 0.014741313, 0.40373385, 0.011104182, 0.91469043, 0.015691917, -0.06387814, -1.3987789, 0
731, 227099798, 0.015402368, 0.41038236, 0.010163409, 0.9117269, -0.4564719, -0.09366965, -0.5306282, 0
732, 227116465, 0.0144870505, 0.41875747, 0.0074556815, 0.907952, -0.50623, -0.07535757, -0.12627888, 0
733, 227133132, 0.012243473, 0.42885032, 0.002914846, 0.90328795, -0.5507537, 0.026232379, -0.34418106, 0
734, 227149799, 0.0097365305, 0.43951643, -0.0021901822, 0.89817923, -0.3862667, 0.13074385, -0.7526169, 0
735, 227166466, 0.008022632, 0.44907293, -0.0065523777, 0.8934352, -0.25183925, 0.18467222, -1.0792227, 0
736, 227183133, 0.007728515, 0.45715272, -0.009653078, 0.8893023, -0.1518421, 0.12730299, -1.1110659, 0
737, 227199800, 0.008698957, 0.4646062, -0.011904736, 0.88539475, -0.26585677, -0.010765543, -0.67026234, 0
738, 227216467, 0.009762618, 0.47175375, -0.014145591, 0.8815629, -0.46638918, -0.13797075, 0.1834755, 0
739, 227233134, 0.01008455, 0.47949818, -0.017688034, 0.87730676, -0.5685164, -0.27361163, 0.6621189, 0
740, 227249801, 0.009165932, 0.48848453, -0.023324277, 0.87221277, -0.35524952, -0.2951402, 0.50824356, 0
741, 227266468, 0.0072004655, 0.49925822, -0.0311556, 0.8658632, -0.42214084, -0.22083487, 0.0064888, 0
742, 227283135, 0.0058162967, 0.5102239, -0.038567144, 0.8591569, -0.6850112, 0.10121562, -0.62372303, 0
743, 227299802, 0.0058826464, 0.5193288, -0.043775022, 0.8534324, -0.74694204, 0.2846698, -0.62111855, 0
744, 227316469, 0.007185207, 0.5262678, -0.046792947, 0.849, -0.96382844, 0.27790245, -0.066435814, 0
745, 227333136, 0.008951617, 0.5315187, -0.048440155, 0.845613, -0.8754548, 0.26063678, 0.43420124, 0
746, 227349803, 0.009979637, 0.5372386, -0.050695464, 0.8418463, -0.77909523, 0.123406194, 0.81860256, 0
747, 227366470, 0.010266133, 0.5449297, -0.054038197, 0.8366757, -0.7925795, 0.18239339, 0.8754492, 0
748, 227383137, 0.010185681, 0.5533988, -0.05755483, 0.8308633, -0.76292264, 0.26309752, 0.86220264, 0
749, 227399804, 0.010419257, 0.56091404, -0.060158007, 0.82561976, -0.7097837, 0.22888768, 1.0916643, 0
750, 227416471, 0.01131436, 0.56668776, -0.061586455, 0.8215497, -0.5456014, 0.15525667, 1.250474, 0
751, 227433138, 0.013052175, 0.57070124, -0.061532464, 0.81874514, -0.49174455, 0.1404753, 1.2757006, 0
752, 227449805, 0.01541626, 0.57377315, -0.060178008, 0.8166549, -0.3754955, 0.0843799, 1.5492039, 0
753, 227466472, 0.017545398, 0.57660687, -0.05827105, 0.8147521, -0.27525187, 0.016861385, 1.951561, 0
754, 227483139, 0.018878413, 0.5797683, -0.056879234, 0.81257445, -0.12647171, -0.16953093, 2.1422863, 0
755, 227499806, 0.019528568, 0.58333707, -0.056446925, 0.81003106, 0.09340629, -0.18582319, 1.9331121, 0
756, 227516473, 0.01989876, 0.58664304, -0.056379113, 0.8076358, 0.0804559, -0.12966302, 1.6398582, 0
757, 227533140, 0.020627014, 0.5894131, -0.055645145, 0.80564916, 0.03909762, -0.053217333, 1.7067709, 0
758, 227549807, 0.021646209, 0.59152514, -0.054295633, 0.80416524, 0.26063597, -0.18279402, 1.8635006, 0
759, 227566474, 0.022323506, 0.5939872, -0.05363769, 0.80237395, 0.29990444, -0.25416458, 2.068799, 0
760, 227583141, 0.02241183, 0.59702635, -0.054154564, 0.8000779, 0.3187257, -0.23617817, 1.7541218, 0
761, 227599808, 0.022205321, 0.6004506, -0.055500247, 0.7974247, 0.1302819, -0.16717233, 1.1150312, 0
762, 227616475, 0.022347605, 0.6033575, -0.05646039, 0.79515564, -0.07354346, -0.020615438, 0.7407837, 0
763, 227633142, 0.022993036, 0.60511297, -0.056253176, 0.79381686, -0.20554142, 0.09204046, 0.79116535, 0
764, 227649809, 0.023923296, 0.6058765, -0.055185992, 0.79328173, -0.11906872, 0.026109917, 1.0847702, 0
765, 227666476, 0.024527008, 0.6064896, -0.054289877, 0.7928567, 0.08674065, -0.030781297, 1.1915112, 0
766, 227683143, 0.02468973, 0.6072694, -0.05379975, 0.7922878, 0.16392364, -0.021055438, 0.94553566, 0
767, 227699810, 0.024655001, 0.60819584, -0.053397983, 0.79160506, 0.27001098, -0.012224957, 0.58478546, 0
768, 227716477, 0.024402076, 0.60930985, -0.053353794, 0.79075885, 0.20463847, -0.03380399, 0.47574806, 0
769, 227733144, 0.024084127, 0.61051226, -0.05341852, 0.7898363, 0.023814829, 0.038090743, 0.4402027, 0
770, 227749811, 0.023841238, 0.6113671, -0.05328434, 0.7891912, -0.042949654, 0.09651741, 0.3173685, 0
771, 227766478, 0.02375397, 0.61187017, -0.052906632, 0.7888293, 0.030274943, -0.016649242, 0.28857708, 0
772, 227783145, 0.023745421, 0.6120823, -0.052402224, 0.7886987, 0.17300822, -0.13236704, 0.24314117, 0
773, 227799812, 0.023738472, 0.61228126, -0.052223463, 0.7885562, 0.11015637, -0.19591339, 0.25914192, 0
774, 227816479, 0.023581937, 0.61279225, -0.05240914, 0.7881516, 9.472444E-4, -0.10862784, 0.20372391, 0
775, 227833146, 0.023280514, 0.6135556, -0.052770752, 0.78754234, -0.19175744, -0.019964708, 0.117816925, 0
776, 227849813, 0.023252036, 0.61428726, -0.052633174, 0.7869817, -0.22869302, -0.0147328, 0.00898838, 0
777, 227866480, 0.023677493, 0.6144637, -0.051637977, 0.78689724, 0.0017270724, -0.096746214, 0.1813097, 0
778, 227883147, 0.024375908, 0.6141851, -0.050260004, 0.7871827, 0.13019533, -0.17940629, 0.60602665, 0
779, 227899814, 0.025079546, 0.61361563, -0.049088094, 0.78767836, 0.21221238, -0.19204322, 0.8950405, 0
780, 227916481, 0.025389308, 0.6132285, -0.048623018, 0.7879988, 0.17448801, -0.122520864, 0.81986713, 0
781, 227933148, 0.025254117, 0.61340374, -0.04896323, 0.7878457, 0.07394598, -0.12215785, 0.48432255, 0
782, 227949815, 0.02492473, 0.6139489, -0.04957175, 0.7873934, -0.0045082127, -0.12096983, 0.025173187, 0
783, 227966482, 0.024812132, 0.61442137, -0.049768176, 0.787016, -0.010547638, -0.10345057, -0.31411457, 0
784, 227983149, 0.024987824, 0.6147793, -0.049480822, 0.7867489, -0.026261963, -0.056775644, -0.44335938, 0
785, 227999816, 0.025400534, 0.61527634, -0.04887551, 0.7863848, -0.048402462, -8.0752437E-4, -0.26123047, 0
786, 228016483, 0.025776358, 0.6156987, -0.048264563, 0.7860798, -0.12087667, 0.04673357, 0.3227539, 0
787, 228033150, 0.025998779, 0.6159388, -0.047970504, 0.7859024, -0.08705468, -0.06526652, 0.92967415, 0
788, 228049817, 0.026004333, 0.61586785, -0.04809875, 0.7859498, 0.06255352, -0.22925545, 1.0098143, 0
789, 228066484, 0.02564041, 0.61570656, -0.04855875, 0.78606, 0.35898307, -0.34467232, 1.2892084, 0
790, 228083151, 0.025137546, 0.61531985, -0.04938936, 0.78632724, 0.3952749, -0.503073, 1.7579546, 0
791, 228099818, 0.025173804, 0.61478275, -0.049862232, 0.7867162, 0.5173616, -0.5820986, 2.1520863, 0
792, 228116485, 0.025650619, 0.61299145, -0.049697164, 0.78810775, 0.6268746, -0.61102283, 2.9183722, 0
793, 228133152, 0.026599698, 0.60986066, -0.04894704, 0.79054844, 0.6913568, -0.7622662, 3.8067017, 0
794, 228149819, 0.027770454, 0.6053204, -0.047999155, 0.7940481, 0.75414526, -0.7943887, 4.273449, 0
795, 228166486, 0.029017469, 0.5993921, -0.04727046, 0.7985315, 0.79456663, -0.81233513, 4.2865067, 0
796, 228183153, 0.030171791, 0.59274125, -0.04730262, 0.8034365, 0.76183367, -0.7692198, 3.989891, 0
797, 228199820, 0.031059558, 0.58649725, -0.048639305, 0.8078928, 0.5994812, -0.71352285, 3.6283503, 0
798, 228216487, 0.03150088, 0.580496, -0.050970804, 0.8120554, 0.322513, -0.5676888, 3.360342, 0
799, 228233154, 0.031723797, 0.574457, -0.05368906, 0.8161559, -0.08930491, -0.41424075, 2.9335299, 0
800, 228249821, 0.03235721, 0.56779885, -0.055654, 0.82064617, -0.33560356, -0.16528717, 2.4116192, 0
801, 228266488, 0.033598714, 0.5597124, -0.056198515, 0.8260963, -0.61670166, 0.037289478, 2.0981627, 0
802, 228283155, 0.035740644, 0.55022323, -0.05487226, 0.83244586, -0.921972, 0.1905639, 2.0075598, 0
803, 228299822, 0.03849944, 0.53893155, -0.05182384, 0.8398721, -1.0181495, 0.34433478, 1.7930145, 0
804, 228316489, 0.041290596, 0.5266287, -0.048158657, 0.8477253, -1.09813, 0.4345051, 1.4342957, 0
805, 228333156, 0.043799594, 0.51472586, -0.04497028, 0.85505354, -1.176472, 0.4852797, 0.91581917, 0
806, 228349823, 0.046023544, 0.5031569, -0.04237893, 0.86192745, -1.0059057, 0.5495879, 0.2805481, 0
807, 228366490, 0.047946546, 0.49176314, -0.040139794, 0.86848086, -0.9874719, 0.66121805, -0.40621185, 0
808, 228383157, 0.049653962, 0.4809474, -0.038078226, 0.87451375, -1.118205, 0.77968, -1.0063639, 0
809, 228399824, 0.051464338, 0.47023553, -0.03559871, 0.88031983, -1.3322976, 0.92066073, -1.2431335, 0
810, 228416491, 0.053289138, 0.45893598, -0.0323427, 0.8862799, -1.3711972, 0.93870455, -1.2226706, 0
811, 228433158, 0.05492496, 0.44743124, -0.028772008, 0.89216644, -1.4420544, 0.8459626, -1.2039204, 0
812, 228449825, 0.056228567, 0.43621472, -0.025021747, 0.89773566, -1.3113062, 0.817125, -1.3481712, 0
813, 228466492, 0.05712149, 0.4253345, -0.021368142, 0.9029791, -1.0511659, 0.61399144, -1.4560347, 0
814, 228483159, 0.058451675, 0.415185, -0.018232398, 0.9076742, -0.6661801, 0.36942232, -1.6545448, 0
815, 228499826, 0.060209036, 0.4049916, -0.015422905, 0.9122055, -0.59968287, 0.43908376, -1.8907118, 0
816, 228516493, 0.062366754, 0.3942869, -0.012435025, 0.9167846, -0.7055767, 0.60436136, -2.164433, 0
817, 228533160, 0.064331375, 0.38364848, -0.00900268, 0.92119193, -0.8648117, 0.7220523, -2.29173, 0
818, 228549827, 0.06567192, 0.374096, -0.005349009, 0.92504627, -0.8383305, 0.64520514, -2.1145048, 0
819, 228566494, 0.065831065, 0.36606854, -0.0019447029, 0.9282545, -0.62080353, 0.43066302, -1.7697992, 0
820, 228583161, 0.06496513, 0.35976067, 5.5043446E-4, 0.9307802, -0.29937816, 0.18421085, -1.5729828, 0
821, 228599828, 0.06373432, 0.35407367, 0.0022933236, 0.9330405, 0.12561703, 0.009027297, -1.7852392, 0
822, 228616495, 0.06285836, 0.34807926, 0.004107463, 0.9353464, 0.30846122, -0.0033533508, -2.0377192, 0
823, 228633162, 0.06293961, 0.3411728, 0.0065866443, 0.93786806, 0.5572353, -0.091609746, -2.1395507, 0
824, 228649829, 0.06400479, 0.333253, 0.009830855, 0.94061106, 0.74958324, -0.17679945, -2.0527945, 0
825, 228666496, 0.06550926, 0.32504034, 0.013447967, 0.94333273, 0.5387308, -0.15819688, -1.7028894, 0
826, 228683163, 0.066583775, 0.31777588, 0.016774165, 0.9456764, 0.3024094, -0.099734776, -1.3428411, 0
827, 228699830, 0.066601284, 0.31239963, 0.019049007, 0.9474217, 0.4537047, -0.2542308, -1.0739317, 0
828, 228716497, 0.06605069, 0.30832502, 0.020316677, 0.94876784, 0.78951794, -0.3934182, -1.0169716, 0
829, 228733164, 0.065617666, 0.3040622, 0.021184279, 0.9501537, 1.0279117, -0.48130727, -1.0509071, 0
830, 228749831, 0.06589353, 0.2997162, 0.021929035, 0.95149744, 1.1523718, -0.52631533, -1.0300312, 0
831, 228766498, 0.06647815, 0.29565877, 0.022511603, 0.95271194, 0.92598635, -0.34268212, -0.9253216, 0
832, 228783165, 0.066894606, 0.29191315, 0.022944298, 0.95382684, 0.6602109, -0.22357614, -0.78542614, 0
833, 228799832, 0.06666288, 0.28883773, 0.0232116, 0.95477235, 0.43300998, -0.13488033, -0.6592417, 0
834, 228816499, 0.06543034, 0.28744766, 0.022935878, 0.95528364, 0.38670236, -0.17071956, -0.5820389, 0
835, 228833166, 0.06387213, 0.28710157, 0.022475155, 0.95550424, 0.56242806, -0.22514819, -0.537611, 0
836, 228849833, 0.0624971, 0.28647494, 0.022071788, 0.9557925, 0.70536214, -0.29307598, -0.50531006, 0
837, 228866500, 0.06185538, 0.2850827, 0.021824751, 0.95625615, 0.70150715, -0.31587353, -0.46894932, 0
838, 228883167, 0.06194545, 0.28271055, 0.021911955, 0.95695215, 0.70126116, -0.34000427, -0.3326044, 0
839, 228899834, 0.062175244, 0.28031224, 0.021968352, 0.9576411, 0.52664167, -0.3013512, -0.16645622, 0
840, 228916501, 0.06173271, 0.27919284, 0.021532342, 0.9580067, 0.31996801, -0.2268133, -0.09684849, 0
841, 228933168, 0.060510043, 0.28004673, 0.020412358, 0.9578601, 0.377001, -0.18536732, -0.25366497, 0
842, 228949835, 0.059033692, 0.28200638, 0.019097777, 0.95740414, 0.6211194, -0.18110749, -0.49575996, 0
843, 228966502, 0.058217213, 0.2840182, 0.018111581, 0.9568785, 0.6729349, -0.19749375, -0.69910526, 0
844, 228983169, 0.058484618, 0.28495166, 0.017690152, 0.9565925, 0.4734243, -0.18768503, -0.4939661, 0
845, 228999836, 0.05963842, 0.28419507, 0.017790029, 0.95674455, 0.45517647, -0.22106957, -0.25980282, 0
846, 229016503, 0.060882937, 0.28284636, 0.0178979, 0.9570637, 0.25931004, -0.1550708, -0.23899174, 0
847, 229033170, 0.06210269, 0.28191718, 0.017928127, 0.957259, 0.17953444, -0.03486228, -0.35094547, 0
848, 229049837, 0.06312218, 0.28141788, 0.017903728, 0.9573395, 0.36546674, 0.018155245, -0.55451775, 0
849, 229066504, 0.06367834, 0.28213227, 0.017716097, 0.95709604, 0.27318674, 0.07872695, -0.6705694, 0
850, 229083171, 0.06382951, 0.2846853, 0.017323136, 0.9563368, 0.27854618, 0.052347403, -0.63764477, 0
851, 229099838, 0.06373258, 0.2879302, 0.016939286, 0.95537823, 0.33514446, -0.010506911, -0.6044779, 0
852, 229116505, 0.06365493, 0.29118273, 0.016509308, 0.95440465, 0.5004794, -0.13340136, -0.57132244, 0
853, 229133172, 0.06368085, 0.294204, 0.015885675, 0.95348656, 0.6163646, -0.13433878, -0.67597485, 0
854, 229149839, 0.06342461, 0.29749483, 0.014942588, 0.9524972, 0.7367887, -0.10081144, -0.9958811, 0
855, 229166506, 0.062790714, 0.30175805, 0.013772031, 0.95121485, 0.83164066, 0.0031409857, -1.4665089, 0
856, 229183173, 0.062061727, 0.30725834, 0.012590242, 0.94951683, 0.8944898, -0.029776437, -1.7882013, 0
857, 229199840, 0.06137675, 0.31359512, 0.011575658, 0.94750047, 0.8795862, -0.11411859, -1.6738796, 0
858, 229216507, 0.060685363, 0.32011753, 0.010563229, 0.94537336, 0.778122, -0.19019534, -1.5347538, 0
859, 229233174, 0.06027657, 0.3265811, 0.009601148, 0.94319654, 0.8130417, -0.24549714, -1.5746069, 0
860, 229249841, 0.06025593, 0.33271676, 0.00882937, 0.9410584, 0.70595384, -0.22721067, -1.5143871, 0
861, 229266508, 0.06011836, 0.33910745, 0.007862356, 0.9387918, 0.48277536, -0.12812881, -1.4703836, 0
862, 229283175, 0.05977586, 0.34617114, 0.0066723446, 0.9362415, 0.4567998, -0.099198006, -1.5900259, 0
863, 229299842, 0.05954472, 0.35407636, 0.0053317943, 0.9333039, 0.5292755, -0.09815155, -1.699295, 0
864, 229316509, 0.05975975, 0.36228636, 0.0044321436, 0.93013865, 0.42092544, -0.045736227, -1.6344824, 0
865, 229333176, 0.05998235, 0.370992, 0.0035408868, 0.9266902, 0.09380815, -0.02660947, -1.1178885, 0
866, 229349843, 0.059452623, 0.3809658, 0.0014306344, 0.9226747, -0.2426857, -0.051809493, -0.68188, 0
867, 229366510, 0.057486724, 0.39219254, -0.0026134052, 0.9180815, -0.32015094, 0.00948983, -0.5691738, 0
868, 229383177, 0.054345064, 0.4044182, -0.008254305, 0.9129209, -0.35562053, 0.106249355, -1.144331, 0
869, 229399844, 0.051334087, 0.41711333, -0.0139248725, 0.90729684, -0.25455776, 0.1462244, -1.7772884, 0
870, 229416511, 0.04992844, 0.4286414, -0.017803142, 0.9019186, -0.40639362, 0.22376034, -1.8271036, 0
871, 229433178, 0.05051185, 0.43772832, -0.019424293, 0.89747715, -0.3582684, 0.14816763, -1.0875149, 0
872, 229449845, 0.05161958, 0.44502732, -0.020463012, 0.8937939, -0.47250405, 0.06304211, -0.31774807, 0
873, 229466512, 0.051792305, 0.4524667, -0.022525258, 0.88999116, -0.7193914, 0.12435793, 0.038758278, 0
874, 229483179, 0.050314024, 0.4619435, -0.026383333, 0.88508815, -0.9033761, 0.17681848, 0.102996826, 0
875, 229499846, 0.048034854, 0.47341716, -0.031243632, 0.8789727, -0.8040963, 0.214933, -0.04024601, 0
876, 229516513, 0.045973033, 0.4846471, -0.035970584, 0.87275994, -0.55850184, 0.20789626, -0.10679531, 0
877, 229533180, 0.044949837, 0.4942338, -0.03968154, 0.86725885, -0.41973796, 0.15625377, -0.07495117, 0
878, 229549847, 0.045210317, 0.50203574, -0.042092416, 0.862638, -0.46013066, 0.05677908, 0.27702808, 0
879, 229566514, 0.045647603, 0.50865483, -0.044493888, 0.85860765, -0.65066457, -0.09090632, 0.98903465, 0
880, 229583181, 0.045391474, 0.51468325, -0.04783633, 0.8548408, -0.74812746, -0.026478294, 1.2458334, 0
881, 229599848, 0.04358131, 0.52202094, -0.053074945, 0.85016346, -0.86283004, 0.12609676, 1.0078249, 0
882, 229616515, 0.041217092, 0.53129727, -0.058963947, 0.84412533, -1.0529124, 0.4405457, 0.65936756, 0
883, 229633182, 0.039078858, 0.5404218, -0.06359137, 0.83807707, -1.0367997, 0.5761024, 0.8841505, 0
884, 229649849, 0.03769025, 0.54714894, -0.06575103, 0.83359724, -0.9029322, 0.5414395, 1.2460899, 0
885, 229666516, 0.037034236, 0.55129504, -0.066009395, 0.83087015, -0.5294736, 0.27466077, 1.573328, 0
886, 229683183, 0.03669372, 0.5548081, -0.06640918, 0.82851154, -0.28540033, 0.025228439, 1.6796741, 0
887, 229699850, 0.03637697, 0.5585105, -0.06775849, 0.82592463, -0.07552309, 0.012061024, 1.449666, 0
888, 229716517, 0.035588436, 0.563222, -0.07029598, 0.8225405, -0.31233516, 0.16421023, 1.2849798, 0
889, 229733184, 0.034279704, 0.5688579, -0.07326691, 0.8184483, -0.5980711, 0.3271959, 1.5097065, 0
890, 229749851, 0.032678302, 0.57420975, -0.075783305, 0.8145382, -0.594462, 0.3824107, 1.7284155, 0
891, 229766518, 0.031143276, 0.5782086, -0.07719813, 0.81163126, -0.40839118, 0.30175498, 1.597333, 0
892, 229783185, 0.030106442, 0.5809522, -0.07734071, 0.8096954, -0.14732067, 0.14109774, 1.2318821, 0
893, 229799852, 0.029794114, 0.5828792, -0.07639272, 0.80841106, -0.009595926, -0.007310592, 1.0980635, 0
894, 229816519, 0.029396756, 0.5847714, -0.07540191, 0.8071511, 0.058761716, -0.15182716, 1.2666168, 0
895, 229833186, 0.028310234, 0.58779764, -0.07543637, 0.80498564, 0.05988677, -0.3046218, 1.2489252, 0
896, 229849853, 0.026851302, 0.59182066, -0.07628525, 0.8020024, 8.376148E-4, -0.32612303, 1.0312672, 0
897, 229866520, 0.025824092, 0.5952869, -0.07653547, 0.7994429, 0.01808409, -0.32680514, 0.8038883, 0
898, 229883187, 0.025467873, 0.597584, -0.07592117, 0.7977974, 0.12486862, -0.4222925, 0.9149647, 0
899, 229899854, 0.025211314, 0.59954727, -0.075286, 0.79639167, 0.07142142, -0.4062651, 1.0715685, 0
900, 229916521, 0.02465105, 0.60195416, -0.07518877, 0.79460067, 0.07089679, -0.37350816, 1.0067539, 0
901, 229933188, 0.023913156, 0.60460204, -0.075486116, 0.79258233, 0.118822195, -0.32785368, 0.5969744, 0
902, 229949855, 0.023529544, 0.6069342, -0.07545911, 0.79081166, 0.12894651, -0.21211597, 0.34667206, 0
903, 229966522, 0.02347269, 0.6087032, -0.074903026, 0.7895056, 0.11012755, -0.20076905, 0.41904926, 0
904, 229983189, 0.023521118, 0.6102312, -0.07423235, 0.7883872, 0.15487851, -0.19891824, 0.4245262, 0
905, 229999856, 0.023518289, 0.61186665, -0.07375322, 0.78716373, 0.14490728, -0.19372506, 0.33275318, 0
906, 230016523, 0.023438163, 0.6136141, -0.0735367, 0.7858249, 0.05145876, -0.15868461, 0.30288792, 0
907, 230033190, 0.023345167, 0.6151739, -0.07354038, 0.78460693, -0.027612366, -0.16695526, 0.5125942, 0
908, 230049857, 0.02323316, 0.61639047, -0.07357581, 0.78365153, 0.014453364, -0.16203031, 0.47149086, 0
909, 230066524, 0.023182753, 0.61756796, -0.073588006, 0.78272426, 0.03135798, -0.10710319, 0.25248528, 0
910, 230083191, 0.02327575, 0.6187261, -0.073454976, 0.78181887, 0.014826538, -0.12635481, 0.18675327, 0
911, 230099858, 0.023560075, 0.6197186, -0.07309394, 0.78105783, 0.03177291, -0.13841826, 0.15215206, 0
912, 230116525, 0.023976853, 0.62064844, -0.0725484, 0.78035724, 0.099653974, -0.1359127, 0.13312149, 0
913, 230133192, 0.024357965, 0.6217853, -0.07205629, 0.77948564, 0.010709639, -0.12313795, 0.23962021, 0
914, 230149859, 0.0246953, 0.62308574, -0.07154164, 0.77848333, -0.019234808, -0.10507734, 0.4333744, 0
915, 230166526, 0.025084741, 0.6241987, -0.07071462, 0.77765447, 0.03184867, -0.07655873, 0.49112415, 0
916, 230183193, 0.025592802, 0.6249891, -0.06953241, 0.77710944, 0.068353906, -0.05987039, 0.5657139, 0
917, 230199860, 0.026223611, 0.62545925, -0.068359576, 0.77681404, 0.06274368, -0.06447633, 1.0061159, 0
918, 230216527, 0.026504746, 0.6252905, -0.06758004, 0.7770087, 0.16349593, -0.06692467, 1.4551382, 0
919, 230233194, 0.026547229, 0.6250253, -0.06749411, 0.777228, 0.24751839, -0.14142098, 1.0463934, 0
920, 230249861, 0.02649915, 0.6250173, -0.06777429, 0.77721155, 0.22315298, -0.0828972, 0.26574612, 0
921, 230266528, 0.026203856, 0.6252724, -0.0682947, 0.7769708, 0.060257703, -0.13449626, -0.23001385, 0
922, 230283195, 0.026048938, 0.6256304, -0.06863924, 0.7766574, -0.050643664, -0.14221786, -0.5698204, 0
923, 230299862, 0.026062448, 0.6260985, -0.068694614, 0.77627474, -0.11833938, -0.10873724, -0.54685974, 0
924, 230316529, 0.026241748, 0.6267645, -0.06848948, 0.7757493, -0.12437026, -0.02157245, -0.21278572, 0
925, 230333196, 0.026377944, 0.6273218, -0.068139434, 0.7753249, -0.17951591, 0.073942706, 0.26283455, 0
926, 230349863, 0.026540158, 0.6276346, -0.06771878, 0.775103, -0.15959468, 0.058230266, 0.5741215, 0
927, 230366530, 0.026668895, 0.62755555, -0.06745429, 0.77518564, -0.05671588, -0.0435029, 0.5340147, 0
928, 230383197, 0.026711516, 0.6274132, -0.06740318, 0.7753038, -0.031196155, -0.09601028, 0.14156914, 0
929, 230399864, 0.026669974, 0.6274244, -0.06744117, 0.77529293, 0.005663366, -0.15347236, -0.088207245, 0
930, 230416531, 0.026544124, 0.6276535, -0.067642786, 0.7750942, -0.003603984, -0.17708148, 0.050358772, 0
931, 230433198, 0.026410013, 0.6278797, -0.068084665, 0.77487695, 0.012846662, -0.22865942, 0.40468407, 0
932, 230449865, 0.026291454, 0.62802434, -0.06873421, 0.77470624, 0.11381573, -0.32750696, 0.62954426, 0
933, 230466532, 0.026347863, 0.6276867, -0.06928638, 0.77492875, 0.3329583, -0.36038545, 0.9324255, 0
934, 230483199, 0.026718264, 0.62690854, -0.06949755, 0.775527, 0.23165618, -0.53747344, 1.6885109, 0
935, 230499866, 0.027467215, 0.6256693, -0.06897985, 0.7765472, 0.5514478, -0.61141473, 2.698061, 0
936, 230516533, 0.02841469, 0.62340474, -0.067837775, 0.77843255, 0.83305126, -0.77253276, 3.6229095, 0
937, 230533200, 0.029557211, 0.62000644, -0.066674545, 0.7811998, 0.94114804, -0.7976992, 4.279376, 0
938, 230549867, 0.030152455, 0.61586237, -0.06666435, 0.784449, 1.0183984, -0.86779463, 4.778511, 0
939, 230566534, 0.030173518, 0.6114598, -0.06839545, 0.78773636, 0.8144308, -0.74011093, 4.6499166, 0
940, 230583201, 0.029742267, 0.60656446, -0.071335234, 0.79126894, 0.5066081, -0.50018823, 4.096574, 0
941, 230599868, 0.029305067, 0.6009979, -0.07424322, 0.79525524, 0.10751349, -0.28515667, 3.6544724, 0
942, 230616535, 0.029347157, 0.5943644, -0.07618473, 0.8000412, -0.10791092, -0.17620808, 3.3306503, 0
943, 230633202, 0.030069629, 0.5858736, -0.07666289, 0.8062077, -0.3619316, -0.046570517, 2.969226, 0
944, 230649869, 0.03113768, 0.57594573, -0.07637632, 0.81331664, -0.67022616, 0.061606333, 2.6492558, 0
945, 230666536, 0.032089796, 0.5655124, -0.07580424, 0.82062155, -0.95584524, 0.19743226, 2.213191, 0
946, 230683203, 0.032775927, 0.5553067, -0.07525843, 0.82758486, -1.1266098, 0.3387638, 1.5872078, 0
947, 230699870, 0.033363197, 0.54548025, -0.07469145, 0.8341221, -1.0756027, 0.4650877, 0.7917471, 0
948, 230716537, 0.034030583, 0.5356476, -0.07365234, 0.840535, -1.1409056, 0.6840437, -0.094537735, 0
949, 230733204, 0.03516904, 0.5253892, -0.07135737, 0.84713507, -1.3336492, 0.8334977, -0.69847965, 0
950, 230749871, 0.03686925, 0.514021, -0.067473836, 0.8543247, -1.4055858, 0.85663, -0.8130188, 0
951, 230766538, 0.038818005, 0.5018417, -0.06271802, 0.8618089, -1.3086102, 0.7514347, -0.9103203, 0
952, 230783205, 0.040745646, 0.4899697, -0.057711095, 0.8688723, -1.218933, 0.6083854, -1.0219927, 0
953, 230799872, 0.04243565, 0.47936344, -0.053163193, 0.87497646, -1.0838541, 0.4766711, -0.96101284, 0
954, 230816539, 0.043670025, 0.46900252, -0.049095117, 0.88074934, -1.0172155, 0.44754973, -1.068779, 0
955, 230833206, 0.044900697, 0.45877862, -0.045154013, 0.8862661, -0.9405894, 0.43784955, -1.4223309, 0
956, 230849873, 0.046116795, 0.4487557, -0.04111508, 0.8915164, -0.6172871, 0.50396675, -1.8200488, 0
957, 230866540, 0.047252458, 0.43913063, -0.036830857, 0.89642346, -0.45571572, 0.45821297, -2.0419497, 0
958, 230883207, 0.048766956, 0.43017712, -0.032281283, 0.9008482, -0.39583552, 0.37494126, -1.8822274, 0
959, 230899874, 0.05058604, 0.42140266, -0.02736711, 0.90504813, -0.46754435, 0.3126786, -1.5869141, 0
960, 230916541, 0.052193366, 0.41316903, -0.022605648, 0.9088764, -0.45295584, 0.23985128, -1.362073, 0
961, 230933208, 0.053049017, 0.4054466, -0.018182823, 0.91239697, -0.5363172, 0.17711858, -1.2805319, 0
962, 230949875, 0.053147767, 0.39857158, -0.014522902, 0.91548085, -0.4683079, 0.058562588, -1.1963625, 0
963, 230966542, 0.05263197, 0.39252457, -0.011644591, 0.9181606, -0.18194857, -0.017275078, -1.155509, 0
964, 230983209, 0.052309502, 0.38656583, -0.009039964, 0.92073286, 0.15050606, -0.15068541, -1.3804741, 0
965, 230999876, 0.053046588, 0.37976995, -0.00617889, 0.9235382, 0.29172873, -0.123928405, -1.4976206, 0
966, 231016543, 0.05448821, 0.37182134, -0.0029230027, 0.92669934, 0.15502766, -0.05055071, -1.5368242, 0
967, 231033210, 0.05589726, 0.3640182, 3.8054766E-4, 0.929713, 0.0117383, -0.13038374, -1.2201834, 0
968, 231049877, 0.056601387, 0.3574434, 0.0027655582, 0.932214, 0.019910261, -0.19934928, -0.9046707, 0
969, 231066544, 0.056421276, 0.3512837, 0.0042843902, 0.9345577, 0.11653604, -0.16897513, -0.8788891, 0
970, 231083211, 0.055956636, 0.34558633, 0.005209665, 0.93670267, 0.34776753, -0.20517175, -1.1320553, 0
971, 231099878, 0.05602732, 0.3395853, 0.0062979315, 0.9388841, 0.509705, -0.15530924, -1.3282433, 0
972, 231116545, 0.056916103, 0.332999, 0.007893017, 0.94117475, 0.60972285, -0.16227396, -1.2842531, 0
973, 231133212, 0.05796756, 0.32653072, 0.009588947, 0.9433586, 0.46397185, -0.13353701, -1.0438461, 0
974, 231149879, 0.05880279, 0.32104427, 0.01090664, 0.94517404, 0.3763516, -0.14157702, -0.9254112, 0
975, 231166546, 0.05907927, 0.3168348, 0.011489241, 0.94656926, 0.3436951, -0.083307356, -0.82335186, 0
976, 231183213, 0.058654625, 0.31361246, 0.01147486, 0.9476683, 0.27258608, 0.0155053735, -0.8476114, 0
977, 231199880, 0.058066875, 0.31070578, 0.01129488, 0.9486637, 0.39984983, -0.017471226, -0.93326664, 0
978, 231216547, 0.05777091, 0.30743363, 0.011329816, 0.9497468, 0.43722615, -0.06787807, -0.84234047, 0
979, 231233214, 0.058146745, 0.3035093, 0.011797957, 0.9509795, 0.58076197, -0.122269705, -0.76126766, 0
980, 231249881, 0.058790106, 0.29932684, 0.012498358, 0.9522558, 0.55630386, -0.18705197, -0.6112299, 0
981, 231266548, 0.059228476, 0.2957598, 0.012967062, 0.9533364, 0.41593271, -0.2213022, -0.36736202, 0
982, 231283215, 0.058986906, 0.2932681, 0.012894371, 0.9541218, 0.44164625, -0.22050358, -0.18381596, 0
983, 231299882, 0.058220044, 0.2917648, 0.012196843, 0.95463866, 0.670407, -0.2743521, -0.34051132, 0
984, 231316549, 0.05761129, 0.29052532, 0.011388899, 0.9550636, 0.8619329, -0.2289945, -0.73694706, 0
985, 231333216, 0.057417754, 0.28931195, 0.010772109, 0.95545065, 0.963034, -0.2099387, -0.8993225, 0
986, 231349883, 0.05733413, 0.28896227, 0.010101077, 0.95556873, 0.9052976, -0.1287566, -0.9860897, 0
987, 231366550, 0.057153977, 0.28962559, 0.009386086, 0.95538604, 0.8092179, -0.09840234, -1.0486736, 0
988, 231383217, 0.057149887, 0.29049712, 0.009028355, 0.95512515, 0.76135856, -0.13940246, -0.9239054, 0
989, 231399884, 0.057511635, 0.29086158, 0.008942486, 0.95499325, 0.81160873, -0.25372496, -0.69661045, 0
990, 231416551, 0.058058966, 0.2912425, 0.00886183, 0.9548447, 0.9272549, -0.33278772, -0.6276655, 0
991, 231433218, 0.058377657, 0.2927243, 0.0083734505, 0.95437646, 0.9260914, -0.29721427, -0.7011852, 0
992, 231449885, 0.058020215, 0.29583076, 0.0073162, 0.9534487, 0.97645605, -0.2587422, -0.83863163, 0
993, 231466552, 0.057138283, 0.3004032, 0.005707484, 0.95208234, 1.0913149, -0.21225022, -1.217205, 0
994, 231483219, 0.05608034, 0.3059034, 0.0040157996, 0.950401, 1.2028965, -0.16771059, -1.5622997, 0
995, 231499886, 0.055572055, 0.31245425, 0.0026768688, 0.94830227, 1.1631246, -0.23127995, -1.8075895, 0
996, 231516553, 0.056279656, 0.3187292, 0.0021512301, 0.94617116, 1.179906, -0.34643725, -1.538147, 0
997, 231533220, 0.05784596, 0.32385778, 0.0020506096, 0.94433355, 0.96935266, -0.42836788, -1.1585016, 0
998, 231549887, 0.05910752, 0.32894894, 0.0015300506, 0.9424949, 0.6216437, -0.29130968, -1.030016, 0
999, 231566554, 0.059572794, 0.3356001, 3.0640344E-4, 0.9401191, 0.54152477, -0.21658033, -1.2441978, 0
1000, 231583221, 0.059556272, 0.34360865, -0.0012462145, 0.9372219, 0.63983095, -0.22290078, -1.3238487, 0
1001, 231599888, 0.05911736, 0.35294726, -0.0032840488, 0.93376803, 0.37128973, -0.20392673, -1.1519604, 0
1002, 231616555, 0.058316816, 0.36307332, -0.00591908, 0.9299151, 0.0981275, -0.18164538, -0.9255562, 0
1003, 231633222, 0.05770697, 0.37312308, -0.008838347, 0.9259434, -7.7995803E-4, -0.23640761, -0.65724087, 0
1004, 231649889, 0.057624545, 0.3819616, -0.011839037, 0.92230403, -0.08272536, -0.2241286, -0.40888977, 0
1005, 231666556, 0.057775844, 0.38959903, -0.01502488, 0.919048, -0.20375197, -0.06037078, -0.46807194, 0
1006, 231683223, 0.057774432, 0.39685646, -0.018502122, 0.91587394, -0.272266, 0.14458466, -0.9610529, 0
1007, 231699890, 0.057532735, 0.40464196, -0.021922896, 0.9124003, -0.24911383, 0.29535785, -1.5248022, 0
1008, 231716557, 0.057593085, 0.41325346, -0.024507511, 0.90846246, -0.3438674, 0.38691658, -1.686512, 0
1009, 231733224, 0.058620404, 0.42201534, -0.025609186, 0.90432906, -0.42993322, 0.31941554, -1.1364889, 0
1010, 231749891, 0.060036816, 0.42998442, -0.026043583, 0.9004615, -0.55866873, 0.22274697, -0.3208151, 0
1011, 231766558, 0.06085381, 0.43728578, -0.027110754, 0.89685184, -0.7820654, 0.27120453, 0.13907719, 0
1012, 231783225, 0.060443167, 0.44468313, -0.029435327, 0.8931615, -0.7845527, 0.35114676, -0.0862484, 0
1013, 231799892, 0.059300236, 0.45277998, -0.032500442, 0.88905436, -0.6136501, 0.33793768, -0.5453758, 0
1014, 231816559, 0.05830975, 0.4611119, -0.03504479, 0.88473046, -0.54970336, 0.33547634, -0.76452065, 0
1015, 231833226, 0.057841793, 0.46950856, -0.036807995, 0.88026214, -0.55855715, 0.18346195, -0.48365974, 0
1016, 231849893, 0.05754388, 0.47790655, -0.038488958, 0.8756784, -0.57589287, 0.15350303, 0.040525436, 0
1017, 231866560, 0.056463167, 0.48618063, -0.04119155, 0.87105894, -0.58493257, 0.10056977, 0.21677876, 0
1018, 231883227, 0.054486517, 0.4949778, -0.045322817, 0.8660104, -0.6631449, 0.15588288, -0.15225315, 0
1019, 231899894, 0.05245125, 0.50396484, -0.049744513, 0.8606938, -0.64531195, 0.3005857, -0.6393423, 0
1020, 231916561, 0.051485006, 0.51205045, -0.05248881, 0.85580295, -0.708744, 0.4519011, -0.6674185, 0
1021, 231933228, 0.05150168, 0.51871514, -0.053322695, 0.85172707, -0.6068335, 0.3130381, 0.1292324, 0
1022, 231949895, 0.0516397, 0.52422076, -0.053660195, 0.84831977, -0.49531248, 0.15063891, 0.5837431, 0
1023, 231966562, 0.0513684, 0.52921706, -0.054675877, 0.84516346, -0.30895877, -0.013640549, 0.59237385, 0
1024, 231983229, 0.050408315, 0.5355022, -0.057134166, 0.84109, -0.45594952, 0.03203058, 0.30170536, 0
1025, 231999896, 0.049216494, 0.54305845, -0.059765484, 0.83611804, -0.5405176, 0.23255691, 0.2714224, 0
1026, 232016563, 0.047993843, 0.55100673, -0.06206189, 0.83080477, -0.64267504, 0.18741634, 0.5822649, 0
1027, 232033230, 0.046904597, 0.55827785, -0.06426436, 0.8258305, -0.6885059, 0.12769832, 1.0732994, 0
1028, 232049897, 0.04589868, 0.56418097, -0.06630603, 0.8217036, -0.5435645, 0.054127432, 1.2710247, 0
1029, 232066564, 0.045213193, 0.5689069, -0.06780306, 0.8183541, -0.37652555, -2.810396E-4, 1.163455, 0
1030, 232083231, 0.045077078, 0.57254446, -0.06826998, 0.8157819, -0.21244755, -0.023490429, 1.0026093, 0
1031, 232099898, 0.045055736, 0.5759211, -0.06841709, 0.8133905, -0.1568853, -0.09844553, 1.0654097, 0
1032, 232116565, 0.04452055, 0.5801846, -0.06957444, 0.8102858, -0.24215329, -0.20969276, 1.3890533, 0
1033, 232133232, 0.04341459, 0.5850197, -0.07166108, 0.8066796, -0.16877824, -0.23835218, 1.2394581, 0
1034, 232149899, 0.042406566, 0.5895149, -0.0738153, 0.8032592, -0.012004958, -0.21396658, 0.8737221, 0
1035, 232166566, 0.0420903, 0.5936133, -0.075240366, 0.80011904, 0.04772454, -0.20284382, 0.69963837, 0
1036, 232183233, 0.04232518, 0.5974772, -0.075803146, 0.7971722, -6.979891E-4, -0.17617224, 0.8693075, 0
1037, 232199900, 0.042760152, 0.60105455, -0.07596762, 0.7944395, 0.01905041, -0.24481274, 1.2366476, 0
1038, 232216567, 0.042679213, 0.6047231, -0.07686239, 0.7915685, 0.05698433, -0.3675796, 1.4284658, 0
1039, 232233234, 0.042003967, 0.60891175, -0.0790156, 0.7881744, -0.045282263, -0.40021542, 1.3906975, 0
1040, 232249901, 0.041259073, 0.61315703, -0.08153934, 0.7846579, -0.1416734, -0.2680579, 1.0437193, 0
1041, 232266568, 0.040922265, 0.6166695, -0.08346881, 0.7817142, -0.107480034, -0.18161236, 0.82938194, 0
1042, 232283235, 0.041199435, 0.6192839, -0.08452814, 0.77951604, -0.05485973, -0.12972908, 0.7574158, 0
1043, 232299902, 0.041722555, 0.6214111, -0.085033104, 0.7777385, -0.08668661, -0.09759025, 0.7961006, 0
1044, 232316569, 0.04224338, 0.6234789, -0.08530148, 0.7760241, -0.11220666, -0.14190307, 0.7768583, 0
1045, 232333236, 0.04260519, 0.62551355, -0.085779525, 0.7743124, -0.1007518, -0.22793444, 0.90153694, 0
1046, 232349903, 0.04277257, 0.627566, -0.086597994, 0.7725492, -0.036667738, -0.2894678, 0.82588196, 0
1047, 232366570, 0.043107606, 0.6293728, -0.08730847, 0.7709792, 0.04446433, -0.29515558, 0.70677185, 0
1048, 232383237, 0.043573894, 0.63072085, -0.08774384, 0.7698011, 0.17739928, -0.27366138, 0.7865782, 0
1049, 232399904, 0.044272654, 0.6317477, -0.08790522, 0.7689002, 0.21667078, -0.25561586, 0.66638565, 0
1050, 232416571, 0.045080926, 0.6326785, -0.08805996, 0.7680699, 0.16167445, -0.18816559, 0.67303276, 0
1051, 232433238, 0.045663375, 0.63371915, -0.08849252, 0.7671272, 0.036481626, -0.07856981, 0.5740814, 0
1052, 232449905, 0.046087015, 0.63484776, -0.089064054, 0.7661019, -0.06037944, 0.0043996847, 0.26419544, 0
1053, 232466572, 0.046593226, 0.63586545, -0.08926318, 0.7652034, -0.13483863, 0.09450687, 0.16109943, 0
1054, 232483239, 0.04724776, 0.63652116, -0.088903345, 0.7646599, -0.10422255, 0.06708859, 0.34599972, 0
1055, 232499906, 0.048008706, 0.6366931, -0.0880644, 0.76456666, 0.014118538, 0.0055087283, 0.40395546, 0
1056, 232516573, 0.048846085, 0.6364553, -0.086949356, 0.76483893, 0.06313701, -0.0023564412, 0.42548847, 0
1057, 232533240, 0.049542967, 0.636305, -0.08597943, 0.76502895, 0.056258123, -0.0030198835, 0.567646, 0
1058, 232549907, 0.04999793, 0.63615745, -0.08510907, 0.7652194, 0.21326786, -0.014312093, 0.8650036, 0
1059, 232566574, 0.05017011, 0.635471, -0.08437412, 0.7658596, 0.20419437, -0.013561648, 1.4602547, 0
1060, 232583241, 0.050298363, 0.6348482, -0.08402113, 0.7664063, 0.26900002, 0.0052355956, 1.3330545, 0
1061, 232599908, 0.050505262, 0.6342836, -0.08371169, 0.7668938, 0.30002555, -0.11209602, 0.9931946, 0
1062, 232616575, 0.050745714, 0.6337474, -0.08321097, 0.76737547, 0.32248136, -0.26219755, 1.1269083, 0
1063, 232633242, 0.05097175, 0.63249075, -0.08251654, 0.76847166, 0.5105009, -0.4942827, 1.5588102, 0
1064, 232649909, 0.05151849, 0.6305802, -0.081887, 0.7700707, 0.5330601, -0.57428527, 1.9501066, 0
1065, 232666576, 0.052040823, 0.6280607, -0.08139935, 0.77214366, 0.527771, -0.5297919, 2.3613014, 0
1066, 232683243, 0.05227176, 0.6254464, -0.081343465, 0.7742532, 0.5057995, -0.5399312, 2.6694221, 0
1067, 232699910, 0.052133117, 0.62284255, -0.08170718, 0.77632064, 0.47748357, -0.50331503, 2.9045944, 0
1068, 232716577, 0.05207196, 0.619724, -0.08198239, 0.7787873, 0.4314564, -0.51092947, 2.9501047, 0
1069, 232733244, 0.052414563, 0.6155493, -0.08165111, 0.7821029, 0.32629538, -0.46413398, 3.1116018, 0
1070, 232749911, 0.052952725, 0.6103548, -0.08091409, 0.7862035, 0.26789582, -0.43862125, 3.3548813, 0
1071, 232766578, 0.053429976, 0.60441494, -0.08011042, 0.79082876, 0.13020672, -0.41943604, 3.329526, 0
1072, 232783245, 0.05369399, 0.5979072, -0.079500176, 0.79580396, 0.023828737, -0.39880586, 3.1319199, 0
1073, 232799912, 0.054024704, 0.59093183, -0.07904981, 0.80101925, -0.038643513, -0.3430667, 2.6888514, 0
1074, 232816579, 0.054505546, 0.58319753, -0.078378394, 0.80670106, -0.14790998, -0.17576967, 2.18322, 0
1075, 232833246, 0.055253614, 0.57496697, -0.07721155, 0.8126492, -0.32488447, 0.018640757, 1.6774864, 0
1076, 232849913, 0.05622062, 0.56661856, -0.07542115, 0.8185929, -0.5512735, 0.26660252, 1.2728701, 0
1077, 232866580, 0.057402372, 0.5579088, -0.07281801, 0.82470626, -0.8120419, 0.44382635, 1.2602816, 0
1078, 232883247, 0.058541365, 0.5482404, -0.06966516, 0.8313558, -0.9715537, 0.47103283, 1.1953259, 0
1079, 232899914, 0.059255447, 0.538121, -0.06653845, 0.83814526, -1.0414275, 0.51406914, 0.76483345, 0
1080, 232916581, 0.059645876, 0.52832496, -0.06355552, 0.8445568, -1.0444021, 0.5956191, 0.13812733, 0
1081, 232933248, 0.05986447, 0.51885647, -0.060428753, 0.85061896, -0.9531252, 0.68452644, -0.4771366, 0
1082, 232949915, 0.060306784, 0.5092795, -0.056707837, 0.8566106, -0.9232287, 0.72319484, -0.9787426, 0
1083, 232966582, 0.06124604, 0.4995523, -0.05232646, 0.8625303, -1.0178423, 0.7324364, -1.1302748, 0
1084, 232983249, 0.062255517, 0.48962787, -0.04752152, 0.86840695, -1.1328908, 0.8130151, -0.93427753, 0
1085, 232999916, 0.06279473, 0.47997397, -0.042960584, 0.8739774, -1.1476731, 0.7740451, -0.9939861, 0
1086, 233016583, 0.062880985, 0.47076547, -0.03855245, 0.87917, -1.1283779, 0.8352513, -1.3100119, 0
1087, 233033250, 0.06270899, 0.46177736, -0.03385078, 0.88412863, -1.0936316, 0.76488745, -1.500843, 0
1088, 233049917, 0.062304836, 0.45270148, -0.02891436, 0.8890127, -0.9820928, 0.6011166, -1.397088, 0
1089, 233066584, 0.061206307, 0.44389468, -0.024307877, 0.8936558, -0.8532919, 0.43104878, -1.1990852, 0
1090, 233083251, 0.059449114, 0.43579572, -0.020543803, 0.8978452, -0.6075628, 0.27195212, -1.2622547, 0
1091, 233099918, 0.057632424, 0.42790416, -0.017124392, 0.9018224, -0.4675388, 0.26964, -1.5680113, 0
1092, 233116585, 0.056604207, 0.4191845, -0.01300073, 0.9060417, -0.4477948, 0.23787898, -1.8128481, 0
1093, 233133252, 0.056647234, 0.4089466, -0.007831478, 0.9107648, -0.48012578, 0.15238619, -1.5664482, 0
1094, 233149919, 0.056927335, 0.397859, -0.0024063638, 0.91567564, -0.38896096, 0.015973674, -1.258771, 0
1095, 233166586, 0.056665823, 0.3874711, 0.0022891928, 0.92013586, -0.38938466, -0.07104654, -0.91518974, 0
1096, 233183253, 0.055235878, 0.37854847, 0.005581869, 0.92391515, -0.32894853, -0.17486267, -0.7456703, 0
1097, 233199920, 0.052935623, 0.37106428, 0.007659082, 0.92706555, -0.0136745805, -0.2931754, -0.9210968, 0
1098, 233216587, 0.050697457, 0.36406463, 0.009328076, 0.9299461, 0.19054168, -0.3226259, -1.1662626, 0
1099, 233233254, 0.049274284, 0.35636273, 0.011368604, 0.93297833, 0.3511688, -0.36772916, -1.1891203, 0
1100, 233249921, 0.04847218, 0.34808028, 0.013455918, 0.93611413, 0.50008774, -0.48365566, -0.99428177, 0
1101, 233266588, 0.04770126, 0.33996966, 0.015162233, 0.9391036, 0.47313, -0.4115619, -0.9929056, 0
1102, 233283255, 0.046728168, 0.3328994, 0.016364703, 0.9416617, 0.55692065, -0.38504303, -1.1342926, 0
1103, 233299922, 0.04555222, 0.3274738, 0.016998807, 0.94360864, 0.61509484, -0.38758954, -1.0744886, 0
1104, 233316589, 0.04441045, 0.3230841, 0.017379144, 0.945168, 0.6075111, -0.37266558, -1.0003138, 0
1105, 233333256, 0.0434501, 0.31895426, 0.017648928, 0.94660926, 0.6459226, -0.35881752, -0.8942642, 0
1106, 233349923, 0.043050565, 0.3148891, 0.01772682, 0.947986, 0.80043054, -0.39565766, -0.81777, 0
1107, 233366590, 0.04323235, 0.31027174, 0.017650485, 0.9495005, 0.8547066, -0.36067462, -0.8152876, 0
1108, 233383257, 0.04364006, 0.30514672, 0.01770828, 0.95114005, 0.7024706, -0.25180796, -0.8459234, 0
1109, 233399924, 0.043940708, 0.30119216, 0.017714135, 0.9523858, 0.43004614, -0.12395082, -0.8188467, 0
1110, 233416591, 0.043914557, 0.2987137, 0.017654072, 0.9531684, 0.42036045, -0.07804978, -0.8207178, 0
1111, 233433258, 0.043764964, 0.296691, 0.017754467, 0.95380497, 0.4956898, -0.040345002, -0.88601303, 0
1112, 233449925, 0.043721113, 0.29464343, 0.01809475, 0.9544351, 0.5870898, -0.07320413, -0.8855877, 0
1113, 233466592, 0.044020012, 0.292782, 0.018574838, 0.9549849, 0.73091394, -0.09359852, -0.9223623, 0
1114, 233483259, 0.04470745, 0.29136896, 0.01919153, 0.95537275, 0.81317246, -0.12299454, -0.8916397, 0
1115, 233499926, 0.045487348, 0.2905861, 0.019887388, 0.9555602, 0.6760057, -0.120733626, -0.6363802, 0
1116, 233516593, 0.046016786, 0.29057392, 0.020391524, 0.95552796, 0.3188425, -0.10753943, -0.29468727, 0
1117, 233533260, 0.045829393, 0.29129136, 0.020364914, 0.95531887, 0.23148191, -0.12083563, -0.0063266754, 0
1118, 233549927, 0.04504961, 0.29215452, 0.019882781, 0.9551028, 0.5109413, -0.15848501, -0.1675291, 0
1119, 233566594, 0.044617794, 0.292475, 0.01946872, 0.95503336, 0.78693646, -0.21640053, -0.5610733, 0
1120, 233583261, 0.04521639, 0.29207498, 0.019556751, 0.95512575, 0.8141815, -0.21939193, -0.69184303, 0
1121, 233599928, 0.04645494, 0.29149374, 0.020002676, 0.9552347, 0.57192975, -0.19859561, -0.38712978, 0
1122, 233616595, 0.04755555, 0.2912597, 0.02034057, 0.95524484, 0.3605737, -0.17840315, -0.092941284, 0
1123, 233633262, 0.04794028, 0.29205143, 0.020113459, 0.95498866, 0.3343402, -0.20089397, 0.052832603, 0
1124, 233649929, 0.04775218, 0.29410136, 0.019133512, 0.9543889, 0.2849063, -0.14025246, 0.023701668, 0
1125, 233666596, 0.047534343, 0.29615837, 0.017927632, 0.9537869, 0.33305895, -0.0836363, -0.14349747, 0
1126, 233683263, 0.048016015, 0.29728416, 0.017145548, 0.9534269, 0.41690034, -0.0739108, -0.27888584, 0
1127, 233699930, 0.049066134, 0.29762125, 0.016829243, 0.95327383, 0.28303558, -0.08241047, -0.13308334, 0
1128, 233716597, 0.049878605, 0.2984448, 0.016426716, 0.95298123, 0.08950465, -0.021792443, 0.058104515, 0
1129, 233733264, 0.049718708, 0.30052745, 0.015550848, 0.9523495, 0.10766664, 0.020944059, -0.025036812, 0
1130, 233749931, 0.04897063, 0.30382493, 0.014181044, 0.95136285, 0.25747618, 0.031996943, -0.21227646, 0
1131, 233766598, 0.04786369, 0.30761772, 0.012589327, 0.95022213, 0.38429186, 0.05012735, -0.4353857, 0
1132, 233783265, 0.047196027, 0.31174028, 0.011109553, 0.94892955, 0.52543765, -0.01843092, -0.7061291, 0
1133, 233799932, 0.047416415, 0.31499824, 0.010359503, 0.94785047, 0.68677634, -0.030799143, -0.79859257, 0
1134, 233816599, 0.048136845, 0.31733444, 0.010108282, 0.94703734, 0.68841535, -0.05931514, -0.8534584, 0
1135, 233833266, 0.048490584, 0.32062215, 0.009507535, 0.9459175, 0.6403155, -0.0018653413, -1.0119648, 0
1136, 233849933, 0.047934465, 0.3261327, 0.008198899, 0.9440723, 0.6926989, 0.07474287, -1.4010019, 0
1137, 233866600, 0.046969105, 0.33354342, 0.0065576015, 0.94154125, 0.8607815, 0.019393157, -1.6835537, 0
1138, 233883267, 0.046047714, 0.3414807, 0.0049746693, 0.93874687, 0.8845645, -0.046165414, -1.7589874, 0
1139, 233899934, 0.04571046, 0.34901747, 0.0036788706, 0.9359935, 0.71601903, -0.14672798, -1.6764278, 0
1140, 233916601, 0.04586641, 0.3556951, 0.0023603896, 0.9334728, 0.598811, -0.17145586, -1.5238905, 0
1141, 233933268, 0.04607134, 0.36206335, 7.7760185E-4, 0.93101406, 0.48714045, -0.13043803, -1.5891056, 0
1142, 233949935, 0.045976713, 0.3694869, -0.0011280976, 0.9280971, 0.4102126, -0.05598583, -1.8320923, 0
1143, 233966602, 0.045998327, 0.37811565, -0.0027531006, 0.9246108, 0.29899463, -0.052723367, -1.8659368, 0
1144, 233983269, 0.04689265, 0.38675997, -0.003484144, 0.9209808, 0.19932537, -0.18871665, -1.2962074, 0
1145, 233999936, 0.048662003, 0.39458445, -0.0036226835, 0.9175631, -0.026444858, -0.31764847, -0.4501953, 0
