DeviceTag:,Xsens DOT 5,,,,,,,,,,,,,,,,,
FirmwareVersion:,1.0.0,,,,,,,,,,,,,,,,,
AppVersion:,2020.1.1,,,,,,,,,,,,,,,,,
Measurement Mode:,Sensor fusion Mode - Extended (Quaternion),,,,,,,,,,,,,,,,,
StartTime:,2020-06-15 13:38:29.109 +0200,,,,,,,,,,,,,,,,,
© Xsens Technologies B. V. 2005-2020,,,,,,,,,,,,,,,,,,,
PacketCounter,SampleTimeFine,Quat_W,Quat_X,Quat_Y,Quat_Z,FreeAcc_X,FreeAcc_Y,FreeAcc_Z,Status
1, 214930638, 0.40552062, 0.5694411, -0.40354693, 0.59028786, 0.0065797744, 0.010203366, 0.07741547, 0
2, 214947305, 0.40544468, 0.56943583, -0.40362814, 0.5902895, -0.010340268, -0.0046678446, 0.070010185, 0
3, 214963972, 0.40546072, 0.56946355, -0.40361688, 0.5902597, 0.010578644, -0.0045154085, 0.058149338, 0
4, 214980639, 0.40546173, 0.56942993, -0.4036142, 0.590293, -0.0045595528, -0.005787868, 0.07241726, 0
5, 214997306, 0.4054795, 0.56942123, -0.40359783, 0.5903004, 0.010272432, -0.024180526, 0.07319164, 0
6, 215013973, 0.4055255, 0.56937045, -0.40356386, 0.5903412, -0.0025550884, -0.01935667, 0.063607216, 0
7, 215030640, 0.40556768, 0.5693379, -0.4035125, 0.5903787, 0.005471597, -0.0015075948, 0.05358219, 0
8, 215047307, 0.40559027, 0.5693093, -0.40348577, 0.59040904, 0.016287388, 0.0025715167, 0.07611561, 0
9, 215063974, 0.40559715, 0.5692884, -0.40346992, 0.5904352, 0.014015157, 0.0031662846, 0.07476044, 0
10, 215080641, 0.4055993, 0.569269, -0.40347666, 0.5904479, 0.012025891, 0.016966645, 0.061676025, 0
11, 215097308, 0.40558377, 0.5692528, -0.40348583, 0.59046793, -0.012800923, 0.0034776381, 0.0687027, 0
12, 215113975, 0.40558216, 0.5692398, -0.40348905, 0.5904794, -0.002749321, 0.004831456, 0.07925129, 0
13, 215130642, 0.40558794, 0.56922424, -0.40350732, 0.5904778, -0.011302715, -0.0052033816, 0.07255077, 0
14, 215147309, 0.4056141, 0.5692045, -0.40352386, 0.59046763, 4.6613626E-4, 9.955267E-4, 0.063643456, 0
15, 215163976, 0.40557432, 0.56923515, -0.40347746, 0.59049714, 0.0111431265, -0.022547986, 0.071694374, 0
16, 215180643, 0.40561694, 0.5691953, -0.40352, 0.5904773, -0.003841629, 0.0035127297, 0.08236885, 0
17, 215197310, 0.40560284, 0.5692119, -0.40349218, 0.59049, 0.009982983, 0.00435962, 0.0821743, 0
18, 215213977, 0.40512237, 0.5695485, -0.4030234, 0.5908151, 0.0119018415, 0.0021126445, 0.060585022, 0
19, 215230644, 0.4049549, 0.5696537, -0.40287504, 0.5909296, 9.873685E-4, -3.1492976E-4, 0.07556152, 0
20, 215247311, 0.40512303, 0.56953365, -0.40303725, 0.5908195, -0.00874338, 0.007895148, 0.06558609, 0
21, 215263978, 0.40517426, 0.5694972, -0.40308443, 0.5907873, 0.0012841937, -7.76037E-4, 0.07186031, 0
22, 215280645, 0.40523744, 0.5694478, -0.40315482, 0.59074354, 0.008248634, -0.0076287207, 0.07797146, 0
23, 215297312, 0.40507478, 0.5695537, -0.4029963, 0.5908614, 0.011584565, -3.967355E-4, 0.06104088, 0
24, 215313979, 0.40509892, 0.5695354, -0.40303135, 0.59083855, 0.0060086986, 2.3602968E-4, 0.067840576, 0
25, 215330646, 0.40497538, 0.5696197, -0.40291265, 0.5909228, -0.004597438, 0.0021984733, 0.06906986, 0
26, 215347313, 0.40507606, 0.56955504, -0.40301153, 0.5908486, -0.018479269, -0.0023763897, 0.058677673, 0
27, 215363980, 0.40428805, 0.57009554, -0.40224412, 0.5913899, -0.0062286356, 0.019982059, 0.06490898, 0
28, 215380647, 0.40472785, 0.56980586, -0.40266085, 0.5910845, -0.03353052, 0.008689066, 0.06899166, 0
29, 215397314, 0.40470347, 0.5698185, -0.40263888, 0.5911039, 0.0060335086, -0.01126997, 0.07323456, 0
30, 215413981, 0.40462887, 0.5698675, -0.40257227, 0.5911532, 0.025900792, 0.0025395541, 0.07075024, 0
31, 215430648, 0.40453383, 0.569934, -0.4024871, 0.5912122, 0.0067445035, 0.007247631, 0.07898712, 0
32, 215447315, 0.4043987, 0.5700269, -0.40235814, 0.5913028, -0.009097871, 0.0036354382, 0.07795048, 0
33, 215463982, 0.40434706, 0.57006425, -0.40232152, 0.591327, -0.011109823, 0.0073685516, 0.079330444, 0
34, 215480649, 0.40395293, 0.57034045, -0.40194216, 0.591588, -0.0076480545, 0.01168861, 0.070117, 0
35, 215497316, 0.403796, 0.5704554, -0.40177467, 0.5916982, -1.2427321E-4, 0.011275111, 0.07223225, 0
36, 215513983, 0.40359172, 0.5705962, -0.4015882, 0.5918283, 0.0032163514, -0.0036010172, 0.06493664, 0
37, 215530650, 0.4037709, 0.57047534, -0.40175772, 0.59170747, 1.784751E-4, 0.0013696874, 0.068470955, 0
38, 215547317, 0.40374818, 0.57049096, -0.40173864, 0.5917208, 0.012074952, -0.006837485, 0.060432434, 0
39, 215563984, 0.40360108, 0.57059175, -0.40160057, 0.59181774, 0.0010349768, 0.013529239, 0.07529926, 0
40, 215580651, 0.40393662, 0.5703691, -0.40191075, 0.5915929, -0.01381366, 0.009331442, 0.065802574, 0
41, 215597318, 0.4039294, 0.57038385, -0.40189338, 0.5915954, 0.0050758673, 0.0070066843, 0.06788921, 0
42, 215613985, 0.40393654, 0.5703895, -0.40189508, 0.59158397, -0.0077440534, -0.012529242, 0.081017494, 0
43, 215630652, 0.40405074, 0.57031757, -0.402012, 0.5914959, 0.0012798352, 2.2060728E-4, 0.08219433, 0
44, 215647319, 0.4039478, 0.5703892, -0.40190613, 0.5915689, -0.008941077, 0.007247184, 0.07205105, 0
45, 215663986, 0.4037474, 0.5705246, -0.40171057, 0.5917081, 0.002029833, -0.004520773, 0.07022858, 0
46, 215680653, 0.40381435, 0.5704916, -0.4017619, 0.59165937, -0.006712988, 0.014848189, 0.07682705, 0
47, 215697320, 0.4037714, 0.57052475, -0.40172154, 0.591684, -0.005928346, -0.009114635, 0.07828331, 0
48, 215713987, 0.40390843, 0.5704334, -0.40185758, 0.5915862, -0.0026596924, 3.9897062E-4, 0.06820679, 0
49, 215730654, 0.40315557, 0.5709545, -0.40113232, 0.592089, -0.008659227, -6.870788E-4, 0.06967926, 0
50, 215747321, 0.4031878, 0.5709339, -0.40115094, 0.5920744, -0.014097968, 0.0022556928, 0.0579319, 0
51, 215763988, 0.40311128, 0.57098836, -0.40107155, 0.5921278, 0.0050849197, 0.0029123737, 0.06840706, 0
52, 215780655, 0.4031413, 0.57097536, -0.40110123, 0.5920998, -0.0063025067, -0.013299021, 0.06628132, 0
53, 215797322, 0.40299273, 0.57107824, -0.4009585, 0.5921983, -0.006440973, -0.0016240451, 0.084332466, 0
54, 215813989, 0.40300897, 0.5710717, -0.40097156, 0.5921847, -0.012712299, 0.0026848377, 0.07263756, 0
55, 215830656, 0.4031163, 0.5710027, -0.40106955, 0.5921118, -0.0053957147, -0.0078099896, 0.065252304, 0
56, 215847323, 0.40285698, 0.57117933, -0.40081984, 0.592287, 0.007305968, 0.017163113, 0.07529545, 0
57, 215863990, 0.40288737, 0.5711584, -0.40083733, 0.59227467, -0.008337145, -0.0010446996, 0.08142662, 0
58, 215880657, 0.40248236, 0.57143813, -0.40045732, 0.5925372, 7.8173657E-4, 0.008590721, 0.08282471, 0
59, 215897324, 0.40239787, 0.57149583, -0.400382, 0.59259, 0.0077293017, 0.0062062843, 0.06782532, 0
60, 215913991, 0.4026191, 0.57134223, -0.4006024, 0.5924388, 0.0042671976, -0.0013231967, 0.06927967, 0
61, 215930658, 0.4026584, 0.57131636, -0.4006371, 0.59241354, 0.0022121076, 0.004406558, 0.066576004, 0
62, 215947325, 0.40272397, 0.5712766, -0.40069142, 0.5923705, -0.001384551, -0.006228412, 0.058229446, 0
63, 215963992, 0.40242016, 0.57148266, -0.40040678, 0.5925708, -0.008220695, 0.0057319896, 0.06594181, 0
64, 215980659, 0.4023884, 0.5715113, -0.40036228, 0.5925948, 0.0020514019, 0.0042592627, 0.06421375, 0
65, 215997326, 0.40214953, 0.5716848, -0.40012985, 0.5927465, 0.0030613453, 0.019372314, 0.06586075, 0
66, 216013993, 0.4020772, 0.5717367, -0.40005875, 0.59279346, 0.014989897, -0.004307318, 0.07610798, 0
67, 216030660, 0.40231827, 0.5715807, -0.40027195, 0.5926364, 4.2713326E-4, -0.004075982, 0.06648159, 0
68, 216047327, 0.40270954, 0.5713157, -0.4006558, 0.5923668, 0.0015039069, 0.013609257, 0.07560539, 0
69, 216063994, 0.40266, 0.57135445, -0.40059653, 0.5924032, -0.0019940708, 0.015204469, 0.071105, 0
70, 216080661, 0.40261665, 0.57138467, -0.40055445, 0.59243196, 0.009708956, -0.00787235, 0.05774212, 0
71, 216097328, 0.40269086, 0.57134455, -0.40061063, 0.5923822, 0.001958644, 0.014261244, 0.059438705, 0
72, 216113995, 0.40278444, 0.5712754, -0.40069854, 0.5923258, 0.0067280754, 0.009712309, 0.06741524, 0
73, 216130662, 0.4023435, 0.5715772, -0.40026802, 0.5926254, 0.008116314, -3.0420112E-4, 0.065657616, 0
74, 216147329, 0.40240797, 0.5715311, -0.40034387, 0.5925749, 0.0015281581, -0.007488131, 0.0740633, 0
75, 216163996, 0.40231854, 0.5716017, -0.4002559, 0.5926268, -0.0019808835, -0.0017141209, 0.06879139, 0
76, 216180663, 0.4023181, 0.5716068, -0.4002513, 0.5926252, 0.00472864, -0.011451016, 0.08151817, 0
77, 216197330, 0.40232286, 0.5716131, -0.40025488, 0.5926136, 0.0044109165, 0.008986785, 0.07184124, 0
78, 216213997, 0.40228742, 0.57164156, -0.40021807, 0.59263504, 3.2297623E-5, 0.010922184, 0.07051563, 0
79, 216230664, 0.40207288, 0.57179046, -0.40000847, 0.5927785, -0.003080679, 0.012885746, 0.07880306, 0
80, 216247331, 0.4019473, 0.57187593, -0.39988342, 0.59286565, -0.0022875434, 0.0069619818, 0.068924904, 0
81, 216263998, 0.40204614, 0.57181495, -0.3999581, 0.59280694, 0.0039357278, 0.0047802716, 0.07533169, 0
82, 216280665, 0.40202746, 0.5718268, -0.3999463, 0.5928162, 0.0037896622, 0.0053944853, 0.06586552, 0
83, 216297332, 0.40200847, 0.5718369, -0.39994037, 0.59282345, -0.009082672, 0.0024883698, 0.058460236, 0
84, 216313999, 0.40206778, 0.57179874, -0.40000373, 0.59277713, 1.6495257E-4, -0.0021162208, 0.07200909, 0
85, 216330666, 0.40207803, 0.5717875, -0.40001762, 0.59277165, 0.0066260416, 0.008827421, 0.06172657, 0
86, 216347333, 0.4021449, 0.571747, -0.40008584, 0.5927192, -0.0029790925, -0.007958849, 0.07428551, 0
87, 216364000, 0.40268773, 0.5713826, -0.40060416, 0.5923519, 0.0022701093, 0.0014718329, 0.06574535, 0
88, 216380667, 0.4027402, 0.57136184, -0.40063378, 0.5923162, 0.017028334, -0.0059056594, 0.078315735, 0
89, 216397334, 0.40287632, 0.57127357, -0.40076134, 0.5922225, 0.006773337, 0.009497512, 0.06326485, 0
90, 216414001, 0.40288228, 0.57127035, -0.4007728, 0.59221387, -5.075979E-4, -0.011141003, 0.07176876, 0
91, 216430668, 0.40290412, 0.5712508, -0.40080038, 0.59219915, 0.013255101, 0.005861851, 0.06863308, 0
92, 216447335, 0.40300605, 0.57118845, -0.40091178, 0.5921145, 0.008842172, 0.013378144, 0.06869793, 0
93, 216464002, 0.40279776, 0.5713389, -0.4007091, 0.59224844, 0.0077922205, -8.301271E-4, 0.063676834, 0
94, 216480669, 0.40288037, 0.571291, -0.40078145, 0.59218925, -0.0031966823, 0.0034304769, 0.07761955, 0
95, 216497336, 0.4028984, 0.5712776, -0.40079215, 0.5921827, 0.0073873266, -0.0033180497, 0.077791214, 0
96, 216514003, 0.4032681, 0.571032, -0.4011468, 0.5919278, -0.0023975116, -0.007447452, 0.06391907, 0
97, 216530670, 0.40356067, 0.5708329, -0.40141904, 0.591736, -0.0064018583, -0.0014892669, 0.07092857, 0
98, 216547337, 0.40363473, 0.57079244, -0.40147665, 0.59168524, 0.0056576715, -0.011623121, 0.07125187, 0
99, 216564004, 0.40367657, 0.57076514, -0.40150294, 0.5916653, 0.00761084, -0.010189509, 0.06932354, 0
100, 216580671, 0.40358406, 0.5708234, -0.40142313, 0.5917264, 0.010703589, 7.152415E-4, 0.064626694, 0
101, 216597338, 0.40382132, 0.57065445, -0.4016618, 0.5915654, 0.008770984, 0.0039320397, 0.08112526, 0
102, 216614005, 0.40371585, 0.5707281, -0.4015686, 0.59162956, -0.0011859598, 0.0038830906, 0.07170582, 0
103, 216630672, 0.4038254, 0.57065505, -0.40167534, 0.591553, -5.6884048E-5, 0.012539747, 0.06838131, 0
104, 216647339, 0.403709, 0.5707325, -0.4015795, 0.5916227, -0.0050116074, 0.0039702607, 0.074053764, 0
105, 216664006, 0.40386704, 0.5706292, -0.40172437, 0.5915162, 0.0042630625, 0.005302398, 0.05783367, 0
106, 216680673, 0.40374482, 0.57071424, -0.40160057, 0.59160167, 3.810896E-4, -0.010210519, 0.07325745, 0
107, 216697340, 0.403726, 0.5707296, -0.40157437, 0.5916174, -0.0027070772, 5.43807E-4, 0.067020416, 0
108, 216714007, 0.40384606, 0.570641, -0.4017001, 0.5915355, 0.0014576397, -0.0111264745, 0.073553085, 0
109, 216730674, 0.40395886, 0.5705645, -0.40180957, 0.59145784, -0.010819592, 0.003398291, 0.062086105, 0
110, 216747341, 0.4039329, 0.570583, -0.4017883, 0.59147215, -0.01140743, -0.008479411, 0.077427864, 0
111, 216764008, 0.40398002, 0.5705549, -0.4018254, 0.5914419, 0.0074533746, 0.015804155, 0.074938774, 0
112, 216780675, 0.40404332, 0.57051706, -0.40187624, 0.59140056, -0.009838817, 0.0025473773, 0.085959435, 0
113, 216797342, 0.40413526, 0.5704582, -0.40195692, 0.59134, 0.0030724092, 0.004809105, 0.08183193, 0
114, 216814009, 0.40447977, 0.5702384, -0.40227693, 0.5910986, 0.0070523927, 0.012079534, 0.06984711, 0
115, 216830676, 0.4043428, 0.5703287, -0.40215185, 0.5911903, 0.0014587573, -0.0079029715, 0.077049255, 0
116, 216847343, 0.40445924, 0.57025117, -0.4022612, 0.59111106, 0.014774765, -0.009629386, 0.055021286, 0
117, 216864010, 0.40443015, 0.5702706, -0.40221864, 0.59114116, -0.0067679724, 5.029042E-4, 0.057959557, 0
118, 216880677, 0.40443555, 0.5702649, -0.402209, 0.5911494, -0.001331802, 0.0035312811, 0.077498436, 0
119, 216897344, 0.40446687, 0.57025105, -0.40223086, 0.5911266, -2.7670903E-4, 0.012993925, 0.062062263, 0
120, 216914011, 0.40374842, 0.57050383, -0.40178224, 0.59167874, 0.0056533134, -0.005744283, 0.06465244, 0
121, 216930678, 0.4038964, 0.57040185, -0.40193337, 0.59157336, 0.0017173617, 0.008494386, 0.059874535, 0
122, 216947345, 0.40384185, 0.5704388, -0.40188566, 0.5916074, -0.008919285, -0.003615322, 0.07382679, 0
123, 216964012, 0.40382856, 0.5704525, -0.40187165, 0.5916128, 0.008935377, 0.0018938252, 0.07507515, 0
124, 216980679, 0.40374714, 0.570508, -0.4017904, 0.59167004, 0.003477191, 0.0152017865, 0.06178093, 0
125, 216997346, 0.40374053, 0.5705161, -0.40178618, 0.5916697, 0.0011750076, 0.008548924, 0.06317425, 0
126, 217014013, 0.40369862, 0.57055086, -0.40173137, 0.5917018, -4.1875153E-4, 0.0050216657, 0.07317257, 0
127, 217030680, 0.4036092, 0.5706118, -0.40163046, 0.59177256, 0.009618545, 0.006663815, 0.058354378, 0
128, 217047347, 0.4036333, 0.57058483, -0.4016648, 0.59175885, 0.002698472, 0.006912362, 0.06783676, 0
129, 217064014, 0.403654, 0.5705735, -0.40167534, 0.5917484, -0.017426634, -0.007744277, 0.0607996, 0
130, 217080681, 0.4035866, 0.5706176, -0.40160832, 0.59179735, -0.0056860577, 0.007817589, 0.06713581, 0
131, 217097348, 0.4037621, 0.5704934, -0.40178677, 0.5916763, -4.3070948E-4, -0.0022972662, 0.068151474, 0
132, 217114015, 0.40379515, 0.5704644, -0.4018223, 0.5916575, -0.008755002, -0.020166233, 0.062496185, 0
133, 217130682, 0.40363255, 0.5705748, -0.40166548, 0.5917686, -0.0075366334, 0.001896731, 0.06785488, 0
134, 217147349, 0.40357184, 0.5706129, -0.40161914, 0.5918046, -0.01167967, 0.014047342, 0.07443619, 0
135, 217164016, 0.40350485, 0.5706527, -0.40155545, 0.5918551, -0.004851237, 0.00690588, 0.072351456, 0
136, 217180683, 0.40347686, 0.57067096, -0.4015364, 0.5918696, -0.010700907, -7.552503E-4, 0.06509113, 0
137, 217197350, 0.40352416, 0.5706382, -0.4015771, 0.59184134, -0.009499077, 0.009447669, 0.07559204, 0
138, 217214017, 0.40363833, 0.5705582, -0.4016988, 0.591758, -0.0075164055, 0.013520746, 0.06864548, 0
139, 217230684, 0.4038149, 0.5704338, -0.40186444, 0.59164494, -0.0071158702, -0.0015527445, 0.06302738, 0
140, 217247351, 0.40381357, 0.5704269, -0.40186682, 0.591651, -4.8167043E-4, -0.007109947, 0.06707573, 0
141, 217264018, 0.4038156, 0.5704162, -0.40187204, 0.59165645, 0.009018301, 0.007456839, 0.0665226, 0
142, 217280685, 0.40347782, 0.5706463, -0.4015487, 0.5918844, -0.009829764, 0.012332104, 0.06310654, 0
143, 217297352, 0.40364954, 0.57053316, -0.40170214, 0.59177226, 2.0797881E-4, 0.013941397, 0.06321335, 0
144, 217314019, 0.40358457, 0.5705726, -0.40165636, 0.5918097, -0.003594312, 0.01290452, 0.06503582, 0
145, 217330686, 0.40355906, 0.57058287, -0.40164617, 0.5918241, -0.015818346, 0.010508015, 0.07655048, 0
146, 217347353, 0.4035606, 0.5705696, -0.40167275, 0.5918178, -0.020118177, 0.0036247096, 0.06762409, 0
147, 217364020, 0.4036557, 0.57050234, -0.4017518, 0.5917641, 0.0013207381, -0.005759035, 0.076423645, 0
148, 217380687, 0.40334275, 0.57070756, -0.40144634, 0.5919868, -2.4888167E-4, -0.00843292, 0.07680607, 0
149, 217397354, 0.40333018, 0.5707188, -0.4014245, 0.5919993, 0.004913597, 0.0012416145, 0.058629036, 0
150, 217414021, 0.4032752, 0.5707581, -0.40136486, 0.59203935, 0.0019517151, -0.0024910518, 0.06339264, 0
151, 217430688, 0.40321013, 0.57079536, -0.40131623, 0.5920808, 0.009869214, 0.004618448, 0.082136154, 0
152, 217447355, 0.40347803, 0.57061666, -0.4015731, 0.5918963, -0.009346977, 0.0026761207, 0.06280804, 0
153, 217464022, 0.40355062, 0.57057124, -0.4016293, 0.59185255, -0.011331101, 0.012443637, 0.07197285, 0
154, 217480689, 0.40349966, 0.5706014, -0.40157932, 0.59189206, -0.0064855637, -0.006767749, 0.07381725, 0
155, 217497356, 0.4034602, 0.57062745, -0.4015351, 0.59192383, 0.013254765, -0.0032449611, 0.066926956, 0
156, 217514023, 0.40346348, 0.57063055, -0.4015341, 0.59191924, -0.006050049, 0.003999988, 0.072117805, 0
157, 217530690, 0.40353656, 0.5705811, -0.40159392, 0.59187657, -0.008768301, 0.0070634563, 0.07414913, 0
158, 217547357, 0.40337697, 0.5706946, -0.40143573, 0.59198314, -0.0020084875, 0.0051571145, 0.07488823, 0
159, 217564024, 0.40347016, 0.5706276, -0.40152732, 0.59192204, -0.0052432786, 0.016335668, 0.06051922, 0
160, 217580691, 0.40352634, 0.57058585, -0.40158135, 0.5918873, 0.0010315123, 0.0012970457, 0.085030556, 0
161, 217597358, 0.40353814, 0.5705831, -0.401588, 0.5918776, 0.0011006895, 0.008415263, 0.08346462, 0
162, 217614025, 0.40354162, 0.57057893, -0.4015987, 0.591872, 0.005340842, 0.0042373585, 0.06367016, 0
163, 217630692, 0.4032706, 0.5707597, -0.40134206, 0.5920564, -2.2150134E-4, 0.0033768336, 0.06562328, 0
164, 217647359, 0.4033243, 0.5707259, -0.401389, 0.59202063, -0.0065227784, -0.008530372, 0.069945335, 0
165, 217664026, 0.40340996, 0.5706702, -0.40147465, 0.591958, -0.015461956, -0.0024935105, 0.074276924, 0
166, 217680693, 0.403643, 0.57051396, -0.4016937, 0.5918009, -0.0068868813, 0.005390909, 0.07122803, 0
167, 217697360, 0.40397757, 0.57028407, -0.40200958, 0.5915798, -0.0022902256, 0.013737554, 0.071305275, 0
168, 217714027, 0.4041472, 0.5701671, -0.40217125, 0.5914666, 0.0065998905, 0.0069903675, 0.07915115, 0
169, 217730694, 0.40420547, 0.57013315, -0.40222862, 0.59142053, 0.0016983632, 0.005596541, 0.07570648, 0
170, 217747361, 0.40421647, 0.5701273, -0.40222925, 0.59141827, -0.0010243598, 4.264627E-4, 0.06635189, 0
171, 217764028, 0.40395352, 0.5702967, -0.40198568, 0.59160024, 0.0031820422, -0.0031933296, 0.0746727, 0
172, 217780695, 0.4041031, 0.57019556, -0.40214214, 0.59148926, -0.012107473, 0.0019785366, 0.061063766, 0
173, 217797362, 0.4040031, 0.57026064, -0.40205044, 0.591557, -0.0019750723, -0.001795256, 0.071702, 0
174, 217814029, 0.4040078, 0.5702591, -0.4020614, 0.59154785, -0.0041580116, 0.0022527871, 0.070679665, 0
175, 217830696, 0.40408343, 0.57021266, -0.40213946, 0.5914879, -0.007864079, -0.006483664, 0.069779396, 0
176, 217847363, 0.40401238, 0.57026607, -0.40207478, 0.5915289, 8.748297E-4, 0.009902965, 0.07217598, 0
177, 217864030, 0.4041102, 0.57019734, -0.40215805, 0.5914716, 0.009602787, 0.008075076, 0.06824303, 0
178, 217880697, 0.4040642, 0.5702255, -0.40211633, 0.59150445, -0.013209392, 0.017092707, 0.054504395, 0
179, 217897364, 0.40391567, 0.5703247, -0.4019798, 0.59160304, 0.012394128, 0.006061448, 0.07265377, 0
180, 217914031, 0.4038359, 0.57038146, -0.40190002, 0.59165704, -0.0078027253, -0.008200914, 0.0680542, 0
181, 217930698, 0.4039311, 0.5703079, -0.4019983, 0.591596, -0.0023416334, 0.0037476418, 0.07106972, 0
182, 217947365, 0.40375188, 0.5704266, -0.40182215, 0.5917236, -0.004908121, -0.0054181777, 0.072330475, 0
183, 217964032, 0.40367946, 0.57046914, -0.40175962, 0.59177464, 0.0026549986, -0.0048473254, 0.06631374, 0
184, 217980699, 0.40364683, 0.5704934, -0.4017388, 0.5917875, 3.3091093E-4, -0.002242729, 0.068193436, 0
185, 217997366, 0.40361637, 0.570506, -0.4017157, 0.5918117, -0.0035255817, -0.0041676224, 0.07505131, 0
186, 218014033, 0.40360662, 0.57050794, -0.4017125, 0.59181875, 0.0049230964, 0.01422347, 0.08274269, 0
187, 218030700, 0.40351063, 0.5705837, -0.4016246, 0.5918709, 0.0041088387, -4.7228287E-4, 0.08051586, 0
188, 218047367, 0.40363437, 0.5705077, -0.40173224, 0.5917867, -5.115094E-4, 0.0044751763, 0.06355286, 0
189, 218064034, 0.40369344, 0.5704642, -0.40178943, 0.5917495, 0.0012731298, -0.0183151, 0.074650764, 0
190, 218080701, 0.40369827, 0.57046485, -0.4017845, 0.591749, -8.025233E-4, -0.0111899525, 0.07450771, 0
191, 218097368, 0.4037121, 0.57043916, -0.4018121, 0.5917456, -0.00558056, 0.0020033466, 0.07408142, 0
192, 218114035, 0.4037565, 0.57040626, -0.40184906, 0.59172183, -0.0010030144, -0.002588727, 0.062745094, 0
193, 218130702, 0.40369612, 0.5704436, -0.40179697, 0.5917625, -0.015512469, -0.0011104124, 0.07797909, 0
194, 218147369, 0.4036607, 0.5704644, -0.40176636, 0.5917874, 3.5672667E-4, -0.009541991, 0.07363224, 0
195, 218164036, 0.4036478, 0.57047457, -0.40174443, 0.5918013, 1.6897579E-4, 0.0018513579, 0.07879734, 0
196, 218180703, 0.40361688, 0.57048976, -0.40172344, 0.59182185, 0.009426324, -0.0013468891, 0.0653429, 0
197, 218197370, 0.40361738, 0.5704773, -0.401737, 0.5918243, -0.007384421, 0.008295013, 0.06271458, 0
198, 218214037, 0.40353373, 0.5705393, -0.40165153, 0.59187955, 0.007252772, 0.006115985, 0.075621605, 0
199, 218230704, 0.40360382, 0.570491, -0.40171006, 0.5918386, -0.007856369, 0.01583254, 0.07060623, 0
200, 218247371, 0.40368566, 0.5704337, -0.40179062, 0.5917834, 0.0030775499, 0.0010674979, 0.080200195, 0
201, 218264038, 0.4035695, 0.57051927, -0.4016714, 0.591861, 0.007355029, -0.00800534, 0.07959366, 0
202, 218280705, 0.40331432, 0.5706925, -0.40143862, 0.59202605, -0.0095654605, -0.0067664078, 0.06643772, 0
203, 218297372, 0.40327772, 0.5707182, -0.40139318, 0.592057, 0.0023524738, 0.0037188085, 0.07029438, 0
204, 218314039, 0.40324527, 0.57073396, -0.40136692, 0.59208167, -0.0034352823, 0.010356026, 0.06550026, 0
205, 218330706, 0.40331128, 0.57068145, -0.40145507, 0.59202754, -0.0015381044, 0.020157516, 0.06526756, 0
206, 218347373, 0.4033555, 0.5706481, -0.40150157, 0.59199804, -0.017180994, -2.1010218E-4, 0.07622242, 0
207, 218364040, 0.40347853, 0.57055414, -0.40163085, 0.59191704, -0.0118578095, 0.010098763, 0.06393719, 0
208, 218380707, 0.4034484, 0.5705726, -0.40159303, 0.59194535, -5.9398566E-4, 0.0017831863, 0.07421875, 0
209, 218397374, 0.4034296, 0.5705799, -0.4015843, 0.59195703, -0.006800046, -0.0013504652, 0.07503033, 0
210, 218414041, 0.40348244, 0.5705445, -0.4016362, 0.5919201, -0.0016988103, -0.011299698, 0.07083988, 0
211, 218430708, 0.40345043, 0.57055604, -0.40161654, 0.5919441, -0.005845087, -0.0043097767, 0.07864666, 0
212, 218447375, 0.4032739, 0.5706794, -0.4014419, 0.59206396, -0.004809999, 0.013016724, 0.06309605, 0
213, 218464042, 0.40310547, 0.5708018, -0.40126407, 0.59218127, 0.0032003704, 0.011894689, 0.071118355, 0
214, 218480709, 0.40326867, 0.57068, -0.40144417, 0.59206533, -0.013990905, -0.0059112473, 0.056842804, 0
215, 218497376, 0.40324384, 0.5706988, -0.401415, 0.59208393, -0.016480057, 0.014874564, 0.081171036, 0
216, 218514043, 0.4031945, 0.57074, -0.40135515, 0.5921183, -0.017835552, 0.008097874, 0.073204994, 0
217, 218530710, 0.40327445, 0.5706841, -0.40143746, 0.59206194, 0.003227527, -0.005257472, 0.08127689, 0
218, 218547377, 0.40326062, 0.570693, -0.40142748, 0.5920695, -0.005293681, -0.013793655, 0.08015823, 0
219, 218564044, 0.4035541, 0.5704941, -0.40171966, 0.5918629, 0.0059584086, 0.009985888, 0.07140255, 0
220, 218580711, 0.4035879, 0.5704698, -0.40175194, 0.5918416, -0.0012978279, 0.0018600748, 0.05996704, 0
221, 218597378, 0.40357804, 0.5704716, -0.40174752, 0.59184957, -0.014560305, 0.01681935, 0.07093239, 0
222, 218614045, 0.40353143, 0.57050383, -0.40170786, 0.59187716, -0.010395699, 0.0049796454, 0.06520462, 0
223, 218630712, 0.4035889, 0.5704673, -0.4017726, 0.5918293, 0.0075502675, 0.016987432, 0.066924095, 0
224, 218647379, 0.40368614, 0.57039934, -0.40186524, 0.5917655, -0.00578228, 0.008761484, 0.07706833, 0
225, 218664046, 0.4036267, 0.5704385, -0.40180367, 0.5918101, -0.00857541, 0.01001271, 0.07411003, 0
226, 218680713, 0.4037458, 0.570357, -0.40192422, 0.59172547, -5.601235E-4, -0.012378371, 0.07172012, 0
227, 218697380, 0.40373126, 0.57036895, -0.40190288, 0.5917386, -2.0272625E-4, -0.004426227, 0.06701946, 0
228, 218714047, 0.4039097, 0.5702489, -0.40207478, 0.5916157, 0.001357953, -0.0031126414, 0.06570053, 0
229, 218730714, 0.40385684, 0.57029015, -0.4020162, 0.5916517, -0.002001782, 0.011515387, 0.08148384, 0
230, 218747381, 0.40385568, 0.5702964, -0.40200546, 0.5916538, -0.0068676593, 0.002052296, 0.08174515, 0
231, 218764048, 0.40377656, 0.5703524, -0.4019302, 0.591705, -0.006809434, 0.01889869, 0.060606956, 0
232, 218780715, 0.40369698, 0.57040817, -0.40184447, 0.5917638, -0.009438729, 0.0018842142, 0.061047554, 0
233, 218797382, 0.40363047, 0.5704506, -0.40178773, 0.5918069, -0.007241373, 6.370119E-5, 0.07363415, 0
234, 218814049, 0.40362155, 0.5704596, -0.40177482, 0.59181297, 0.0013132504, 7.834129E-4, 0.06223774, 0
235, 218830716, 0.40358102, 0.5704818, -0.4017382, 0.59184414, -1.4193072E-4, -0.0052451785, 0.08442783, 0
236, 218847383, 0.4035863, 0.5704752, -0.40174314, 0.5918433, -0.0072234916, -0.0025259198, 0.06768513, 0
237, 218864050, 0.40359974, 0.5704653, -0.4017599, 0.5918326, 0.005998641, -3.0956545E-4, 0.07078266, 0
238, 218880717, 0.40371838, 0.5703802, -0.401873, 0.5917568, 0.0024076817, -0.0014016498, 0.07161617, 0
239, 218897384, 0.40366834, 0.57041365, -0.40182492, 0.5917914, -0.012495939, 0.0015840363, 0.073322296, 0
240, 218914051, 0.40370324, 0.5704752, -0.40189564, 0.5916601, -0.0155920405, -0.013900718, 0.07725906, 0
241, 218930718, 0.4037181, 0.5704686, -0.40190816, 0.5916478, 2.5324017E-4, -0.003267536, 0.06425381, 0
242, 218947385, 0.40360817, 0.5705335, -0.4018093, 0.5917274, 0.013445757, -0.007352906, 0.08308506, 0
243, 218964052, 0.40343568, 0.5706523, -0.4016422, 0.591844, 0.007494725, 0.0014128254, 0.077466965, 0
244, 218980719, 0.40353692, 0.5705885, -0.40173727, 0.59177184, -8.7840593E-4, -0.015245148, 0.070043564, 0
245, 218997386, 0.40362734, 0.5705327, -0.40182757, 0.59170276, -0.010679337, 0.0030672683, 0.07189274, 0
246, 219014053, 0.40360048, 0.5705438, -0.40180388, 0.5917265, -5.0245714E-4, -0.004179022, 0.07196522, 0
247, 219030720, 0.4035067, 0.5706109, -0.4017028, 0.59179425, -0.0074939425, -0.0043935943, 0.077106476, 0
248, 219047387, 0.4037004, 0.5704847, -0.40188313, 0.5916616, -0.0024191926, -0.0018951664, 0.06378651, 0
249, 219064054, 0.4037375, 0.5704552, -0.40191722, 0.5916413, -0.00693963, -0.006371684, 0.056404114, 0
250, 219080721, 0.40369746, 0.5704815, -0.40187278, 0.59167343, -0.0012784941, -0.0036021348, 0.06716919, 0
251, 219097388, 0.40369517, 0.5704861, -0.40186864, 0.59167355, -0.012987668, -0.004915497, 0.07523441, 0
252, 219114055, 0.40380144, 0.5704212, -0.40196505, 0.59159803, -0.010174869, -0.012498174, 0.063447, 0
253, 219130722, 0.40384737, 0.5703969, -0.4020108, 0.59155905, -0.011541315, -0.009552273, 0.08003235, 0
254, 219147389, 0.40370318, 0.57049227, -0.40188742, 0.5916492, -5.8560396E-5, -0.012051148, 0.079647064, 0
255, 219164056, 0.4037877, 0.57043064, -0.40197265, 0.591593, -0.0011287404, 0.006402529, 0.080109596, 0
256, 219180723, 0.40386215, 0.570385, -0.40203536, 0.5915437, -0.005380739, 0.0019671374, 0.07354641, 0
257, 219197390, 0.40384564, 0.57040244, -0.4020128, 0.59155345, -0.0068424023, 0.0030020026, 0.07643795, 0
258, 219214057, 0.40407023, 0.57024926, -0.4022197, 0.5914072, -0.022806816, -0.00622573, 0.07879543, 0
259, 219230724, 0.40392208, 0.57034713, -0.40207994, 0.591509, -0.0032918989, 0.010517403, 0.073732376, 0
260, 219247391, 0.40412632, 0.57020736, -0.40227294, 0.59137315, 8.8935805E-4, -0.008344856, 0.07502842, 0
261, 219264058, 0.40414977, 0.57019293, -0.40229294, 0.59135735, -0.0033252023, -0.0133372415, 0.06319237, 0
262, 219280725, 0.40422997, 0.5701438, -0.40235898, 0.59130496, -0.0094648795, -0.0053265374, 0.05890274, 0
263, 219297392, 0.40440536, 0.5700175, -0.40254012, 0.5911834, 0.0014043319, 0.0029807687, 0.067697525, 0
264, 219314059, 0.4044507, 0.5699751, -0.4025874, 0.5911611, -0.001098678, -0.012520973, 0.0731163, 0
265, 219330726, 0.40431556, 0.570055, -0.4024608, 0.5912627, 0.0023939356, -0.008352009, 0.067790985, 0
266, 219347393, 0.404634, 0.56983334, -0.40275767, 0.5910564, 0.007511488, -0.006068377, 0.07915211, 0
267, 219364060, 0.40462762, 0.5698381, -0.40276223, 0.59105307, 0.004288655, -0.0026642745, 0.059972763, 0
268, 219380727, 0.40462556, 0.5698379, -0.40276855, 0.5910504, 0.0032559133, 0.0010491698, 0.07073498, 0
269, 219397394, 0.40464053, 0.56983334, -0.40276676, 0.59104574, -0.01204109, -0.0063245227, 0.0661459, 0
270, 219414061, 0.40463227, 0.5698421, -0.40275708, 0.59104955, -0.009892907, -0.0074648857, 0.07400417, 0
271, 219430728, 0.40464035, 0.5698434, -0.40275088, 0.5910469, -0.011313667, 0.0055701663, 0.07598114, 0
272, 219447395, 0.40463892, 0.5698434, -0.40275133, 0.59104764, 0.0030149661, 0.009093401, 0.06849766, 0
273, 219464062, 0.40463665, 0.5698463, -0.4027474, 0.5910491, 0.0017198204, 0.003029271, 0.0640955, 0
274, 219480729, 0.40464172, 0.5698457, -0.40274742, 0.59104615, 0.004705618, -0.0045728516, 0.068754196, 0
275, 219497396, 0.40464875, 0.5698465, -0.402751, 0.59103817, -0.007442758, -0.008967787, 0.07565689, 0
276, 219514063, 0.404646, 0.5698487, -0.40275, 0.59103864, 5.0469226E-4, 0.0076539777, 0.07901096, 0
277, 219530730, 0.4046469, 0.5698561, -0.40275243, 0.59102917, -0.006096316, -0.0023768367, 0.05890274, 0
278, 219547397, 0.40464735, 0.56985027, -0.40276107, 0.5910286, -0.006800046, 0.008492822, 0.07033825, 0
279, 219564064, 0.40464923, 0.5698496, -0.40277, 0.5910218, -9.545121E-4, 0.011196211, 0.077682495, 0
280, 219580731, 0.4046515, 0.5698443, -0.40276772, 0.5910269, 0.0053088795, 0.0033428597, 0.06063366, 0
281, 219597398, 0.40465373, 0.5698389, -0.4027706, 0.59102863, -0.009359381, 0.0037096445, 0.06288242, 0
282, 219614065, 0.40465084, 0.5698485, -0.40276754, 0.59102345, 0.01319397, -0.014822485, 0.061454773, 0
283, 219630732, 0.4046483, 0.56984115, -0.40278104, 0.59102315, -0.0026954545, -0.018543081, 0.08051777, 0
284, 219647399, 0.40463594, 0.5698516, -0.40278378, 0.5910197, 0.0020507313, -0.009410566, 0.070962906, 0
285, 219664066, 0.4046314, 0.5698416, -0.40279257, 0.59102637, 7.904536E-4, 0.009417942, 0.07028866, 0
286, 219680733, 0.4046356, 0.5698344, -0.4028102, 0.59101844, -0.012790529, 0.022678966, 0.07116127, 0
287, 219697400, 0.4046278, 0.56983864, -0.40280536, 0.59102297, -0.006681026, 0.0024678065, 0.073124886, 0
288, 219714067, 0.40462577, 0.56984264, -0.40279743, 0.59102595, 0.006649175, -0.0044456725, 0.076088905, 0
289, 219730734, 0.404633, 0.56984085, -0.40279236, 0.5910261, -0.008290095, -0.0074917073, 0.06506157, 0
290, 219747401, 0.40462962, 0.5698432, -0.40279648, 0.5910235, 0.0028566073, -0.012699336, 0.078471184, 0
291, 219764068, 0.40450692, 0.56992584, -0.40267053, 0.5911135, -5.6448195E-4, 0.0036843875, 0.06078148, 0
292, 219780735, 0.40430474, 0.57006437, -0.4024743, 0.5912519, 0.0043149176, -0.016863158, 0.07446957, 0
293, 219797402, 0.40430474, 0.5700645, -0.4024695, 0.59125507, -0.0011731078, -0.006513391, 0.06685066, 0
294, 219814069, 0.40441343, 0.56998223, -0.40258113, 0.591184, 0.0027827362, -0.006247634, 0.07787895, 0
295, 219830736, 0.4043656, 0.570006, -0.40254974, 0.59121513, 0.0051166588, 0.010654863, 0.069153786, 0
296, 219847403, 0.40438166, 0.57000244, -0.40255705, 0.5912027, 0.0074093426, -1.519888E-4, 0.066410065, 0
297, 219864070, 0.40429926, 0.5700663, -0.40247384, 0.5912541, 3.684611E-4, 0.0064577363, 0.06876278, 0
298, 219880737, 0.40431726, 0.57005346, -0.40249234, 0.5912416, 0.0013237555, -0.011464426, 0.068424225, 0
299, 219897404, 0.4042762, 0.5700841, -0.40243766, 0.59127736, -0.009708174, -0.014140547, 0.067858696, 0
300, 219914071, 0.404127, 0.57017684, -0.40229133, 0.5913894, 3.7069625E-4, -0.009500418, 0.067118645, 0
301, 219930738, 0.40410966, 0.57018524, -0.4022785, 0.5914019, -0.010878823, 0.00148502, 0.08036995, 0
302, 219947405, 0.4041263, 0.5701764, -0.40229926, 0.59138495, -0.008023221, 0.00804736, 0.076254845, 0
303, 219964072, 0.40407336, 0.570212, -0.40224373, 0.59142464, -0.004767308, -0.007190412, 0.05660343, 0
304, 219980739, 0.404069, 0.5702177, -0.40223995, 0.59142464, 0.0031473977, 0.0072411494, 0.07574844, 0
305, 219997406, 0.40409267, 0.5701957, -0.40227214, 0.5914078, 0.0070043374, 0.01415597, 0.06952953, 0
306, 220014073, 0.4041154, 0.57017356, -0.4022899, 0.5914015, -0.0014776442, -0.009324737, 0.07877159, 0
307, 220030740, 0.4041121, 0.57017785, -0.40229106, 0.5913989, -0.012870323, 0.0051931, 0.058815002, 0
308, 220047407, 0.40406528, 0.57021093, -0.4022489, 0.59142756, -0.006013169, -0.008045796, 0.07363415, 0
309, 220064074, 0.404148, 0.5701547, -0.40231216, 0.5913822, -0.012362725, 0.008088711, 0.0648222, 0
310, 220080741, 0.40412152, 0.570183, -0.40228906, 0.5913888, 3.718138E-4, 0.009056969, 0.06787777, 0
311, 220097408, 0.40400574, 0.5702573, -0.40218785, 0.5914651, 0.023121186, -0.010396705, 0.060934067, 0
312, 220114075, 0.40400586, 0.5702543, -0.40220743, 0.5914545, -0.009922299, 0.0066068196, 0.055408478, 0
313, 220130742, 0.4040107, 0.57025003, -0.40222004, 0.5914468, 0.0035815716, -0.0076155337, 0.06646919, 0
314, 220147409, 0.40398422, 0.5702611, -0.40218738, 0.5914764, -0.019838339, 0.007805743, 0.073750496, 0
315, 220164076, 0.40392262, 0.5703153, -0.40212166, 0.59151095, -0.015708715, 6.895375E-4, 0.07314968, 0
316, 220180743, 0.4039115, 0.57033056, -0.40209827, 0.5915197, 0.009324849, -0.0033857743, 0.068216324, 0
317, 220197410, 0.40394643, 0.57030696, -0.40212983, 0.59149724, 0.009827864, -0.002991274, 0.072135925, 0
318, 220214077, 0.4039544, 0.5703075, -0.4021268, 0.59149337, 0.0075938525, 0.0047436156, 0.06771946, 0
319, 220230744, 0.40396276, 0.57031083, -0.40212977, 0.5914824, -0.010085128, 0.006246293, 0.053052902, 0
320, 220247411, 0.40396783, 0.57030404, -0.40213978, 0.5914787, -0.014650492, 1.4953017E-4, 0.07718468, 0
321, 220264078, 0.4040157, 0.57027155, -0.40218294, 0.59144795, -0.022902591, -4.6088372E-4, 0.06852341, 0
322, 220280745, 0.40403858, 0.5702572, -0.40220773, 0.59142935, -0.008944541, 0.008078429, 0.07793236, 0
323, 220297412, 0.40403053, 0.5702645, -0.40219906, 0.59143364, -2.0943164E-4, -0.009185265, 0.06916523, 0
324, 220314079, 0.40417796, 0.5701678, -0.40234143, 0.5913293, 0.005636438, -0.0019619968, 0.06458473, 0
325, 220330746, 0.4041297, 0.5702021, -0.40229535, 0.59136057, -2.724623E-4, -0.003762617, 0.07472515, 0
326, 220347413, 0.40406945, 0.5702474, -0.40223476, 0.5913993, 0.002429027, 0.0035878299, 0.067337036, 0
327, 220364080, 0.40403238, 0.5702622, -0.4021965, 0.5914363, -0.003291787, 0.0018337003, 0.057248116, 0
328, 220380747, 0.40404904, 0.57025576, -0.40221807, 0.5914165, -0.0023732607, -0.008545571, 0.06661224, 0
329, 220397414, 0.40401644, 0.5702851, -0.402174, 0.5914404, -0.005000991, -9.038864E-4, 0.083208084, 0
330, 220414081, 0.4039762, 0.57030904, -0.4021343, 0.59147185, 0.0060943044, 0.006485899, 0.07993889, 0
331, 220430748, 0.40395555, 0.5703151, -0.40212324, 0.59148765, 0.0048607364, -3.761723E-4, 0.064035416, 0
332, 220447415, 0.4038797, 0.5703598, -0.40204832, 0.59154713, 0.0074869017, -6.0996687E-4, 0.08792591, 0
333, 220464082, 0.40395203, 0.5703055, -0.40212435, 0.59149843, -0.0013267729, 0.0056146453, 0.07102394, 0
334, 220480749, 0.4039728, 0.5702888, -0.40214685, 0.591485, -0.0025691697, 0.01401471, 0.059490204, 0
335, 220497416, 0.40391785, 0.57032204, -0.40210715, 0.5915175, -0.007919176, -0.0012290977, 0.066119194, 0
336, 220514083, 0.40396187, 0.57028776, -0.40214884, 0.59149224, -0.0029958559, 0.009236002, 0.06912804, 0
337, 220530750, 0.40395164, 0.5702992, -0.4021257, 0.591504, 0.0035204408, 0.0026774616, 0.06506443, 0
338, 220547417, 0.40394413, 0.57030934, -0.40210757, 0.59151167, 0.006441755, -0.005043123, 0.07483482, 0
339, 220564084, 0.4039372, 0.5703104, -0.40210775, 0.59151524, 0.0119769415, 0.0060965396, 0.07564831, 0
340, 220580751, 0.4039563, 0.5702874, -0.40213493, 0.5915059, -0.005594529, -0.00646243, 0.08299446, 0
341, 220597418, 0.40401977, 0.57024395, -0.4021975, 0.5914617, -0.00393841, 0.009227732, 0.07580471, 0
342, 220614085, 0.40400913, 0.5702498, -0.40219522, 0.59146494, -0.002591968, 0.006539542, 0.06414509, 0
343, 220630752, 0.4041404, 0.57016164, -0.40232363, 0.59137297, -0.009005449, 0.003329002, 0.078113556, 0
344, 220647419, 0.40429673, 0.57005227, -0.40247223, 0.5912703, -0.012450677, -0.0040078107, 0.057967186, 0
345, 220664086, 0.40434414, 0.5700152, -0.40252516, 0.5912377, -0.008504445, 0.003985683, 0.067765236, 0
346, 220680753, 0.4043237, 0.5700289, -0.40248427, 0.59126633, -0.0016000175, 0.0023687903, 0.065592766, 0
347, 220697420, 0.4043733, 0.56999904, -0.40253544, 0.5912263, -0.015095618, 0.0029662405, 0.08317375, 0
348, 220714087, 0.40433973, 0.5700126, -0.4025036, 0.5912578, -0.004571175, 0.002026592, 0.05952549, 0
349, 220730754, 0.40435526, 0.56999636, -0.40252307, 0.59124964, 0.0033642054, -0.014013369, 0.06793594, 0
350, 220747421, 0.40438476, 0.5699704, -0.4025477, 0.5912377, -0.0042718914, 0.008792777, 0.0789547, 0
351, 220764088, 0.4043715, 0.56998324, -0.40253416, 0.59124374, -0.0047665257, -0.0014868082, 0.08173466, 0
352, 220780755, 0.40436238, 0.5699884, -0.4025261, 0.59125054, -0.0087817125, 4.742945E-4, 0.068302155, 0
353, 220797422, 0.4044199, 0.56994647, -0.40258586, 0.5912108, 0.009454933, -0.00545841, 0.08187008, 0
354, 220814089, 0.40452424, 0.5698839, -0.4026809, 0.5911351, 0.003747083, 0.007408113, 0.08501148, 0
355, 220830756, 0.4045569, 0.5698617, -0.40270987, 0.5911143, 0.01147929, -0.018114608, 0.067910194, 0
356, 220847423, 0.40454742, 0.5698654, -0.4027024, 0.5911223, -0.0051386748, -0.0039262287, 0.06986618, 0
357, 220864090, 0.40458426, 0.5698338, -0.4027349, 0.5911054, 3.8455403E-4, -0.004674997, 0.07181835, 0
358, 220880757, 0.4045711, 0.5698468, -0.40271336, 0.5911166, -0.004351462, -0.021594482, 0.068468094, 0
359, 220897424, 0.4045829, 0.5698373, -0.4027171, 0.5911151, 0.0033454301, -0.012330763, 0.066931725, 0
360, 220914091, 0.40459234, 0.5698607, -0.40273306, 0.59107536, -0.005478526, -0.0073947026, 0.08016682, 0
361, 220930758, 0.40468726, 0.56980515, -0.40281054, 0.5910109, -0.0065507176, -0.010133184, 0.067168236, 0
362, 220947425, 0.40465492, 0.56982225, -0.40279177, 0.5910295, 0.0074232006, 0.008477176, 0.081521034, 0
363, 220964092, 0.40467665, 0.56981325, -0.40280706, 0.5910128, -0.0070141717, 1.9937355E-4, 0.068784714, 0
364, 220980759, 0.40468752, 0.5698103, -0.40283376, 0.59098995, 8.1783393E-4, -0.0032726766, 0.073719025, 0
365, 220997426, 0.4046987, 0.5697989, -0.40283382, 0.5909934, -0.027180405, 0.02156319, 0.066859245, 0
366, 221014093, 0.40460426, 0.56986105, -0.40273392, 0.5910662, -0.005196788, -0.0023759427, 0.077150345, 0
367, 221030760, 0.40465328, 0.56982434, -0.40279013, 0.5910298, -0.012856353, 0.011645248, 0.07266235, 0
368, 221047427, 0.40464547, 0.5698134, -0.4027693, 0.59105986, 0.010143242, -0.017660877, 0.07993126, 0
369, 221064094, 0.40464517, 0.56982434, -0.40279135, 0.5910344, 0.015143561, -0.003703386, 0.06633854, 0
370, 221080761, 0.4046243, 0.56983584, -0.40276563, 0.5910551, -0.0032118813, 0.024800327, 0.06411362, 0
371, 221097428, 0.40462562, 0.56984204, -0.40276954, 0.5910456, -0.0067478563, 0.0048059756, 0.066996574, 0
372, 221114095, 0.40466073, 0.5698182, -0.40281236, 0.5910154, -0.004535078, 0.020961044, 0.07259846, 0
373, 221130762, 0.40464777, 0.56982, -0.4028045, 0.5910279, 0.0015628026, -0.006258363, 0.07108307, 0
374, 221147429, 0.40463832, 0.5698234, -0.402789, 0.5910416, 0.0027354632, 0.0057031563, 0.06958485, 0
375, 221164096, 0.4045245, 0.56989527, -0.40266827, 0.5911325, -0.013354452, -0.008522102, 0.069322586, 0
376, 221180763, 0.40459904, 0.56984615, -0.40274483, 0.59107673, 0.011318584, -0.014797005, 0.054213524, 0
377, 221197430, 0.4046004, 0.5698459, -0.40273282, 0.5910842, 0.014229952, 0.002968252, 0.07075119, 0
378, 221214097, 0.40460572, 0.5698537, -0.40274444, 0.59106505, 0.0010208954, -0.014308182, 0.06669903, 0
379, 221230764, 0.40461817, 0.5698399, -0.40276143, 0.5910583, 0.0057980376, 0.008375477, 0.067100525, 0
380, 221247431, 0.4046015, 0.5698491, -0.4027474, 0.5910705, -0.019522851, 0.0078209415, 0.075722694, 0
381, 221264098, 0.40459925, 0.5698514, -0.40274763, 0.59106964, -0.014087351, 0.018387517, 0.078722954, 0
382, 221280765, 0.40460002, 0.5698432, -0.40275, 0.5910754, 0.009041099, 0.010042214, 0.071686745, 0
383, 221297432, 0.40460074, 0.5698469, -0.4027472, 0.5910733, 6.786971E-4, 0.0011345517, 0.059405327, 0
384, 221314099, 0.40459016, 0.569852, -0.40274355, 0.5910781, -0.0012257451, -0.0019749606, 0.07193947, 0
385, 221330766, 0.40455398, 0.56988084, -0.40271258, 0.591096, 0.01181266, 0.0058189365, 0.070528984, 0
386, 221347433, 0.40451336, 0.5699194, -0.40265888, 0.5911232, -0.008911685, -0.00299038, 0.06053257, 0
387, 221364100, 0.40456057, 0.56988317, -0.40271962, 0.5910845, -0.011004996, -0.006223718, 0.0714798, 0
388, 221380767, 0.40457076, 0.5698759, -0.40273073, 0.5910769, -0.0048661004, -0.010338368, 0.07580376, 0
389, 221397434, 0.4045176, 0.5699075, -0.40269482, 0.59110737, -0.0030520693, -0.0034691447, 0.05818844, 0
390, 221414101, 0.40450746, 0.5699108, -0.40268213, 0.5911197, -0.007086478, -1.897625E-4, 0.061945915, 0
391, 221430768, 0.40448898, 0.56991935, -0.40266076, 0.59113884, -0.008456613, 0.0068086516, 0.07133198, 0
392, 221447435, 0.40439913, 0.56998163, -0.40257147, 0.59120107, 4.9932796E-4, -0.0027825127, 0.071107864, 0
393, 221464102, 0.40433574, 0.57002, -0.40252635, 0.5912379, 0.0059899236, -0.014129595, 0.06563473, 0
394, 221480769, 0.40433687, 0.5700147, -0.40251806, 0.59124804, 8.943871E-4, -0.0051157647, 0.06711006, 0
395, 221497436, 0.40427098, 0.57005936, -0.40246406, 0.59128684, 0.0068242974, 0.0017192616, 0.07749081, 0
396, 221514103, 0.40425327, 0.5700704, -0.40243858, 0.5913057, 0.005023901, 0.0041557765, 0.06323528, 0
397, 221530770, 0.40424025, 0.5700855, -0.4024216, 0.5913116, -0.0011648377, -4.812234E-4, 0.061219215, 0
398, 221547437, 0.40425816, 0.57007235, -0.40244704, 0.5912945, -0.0077679693, 0.005636773, 0.07752323, 0
399, 221564104, 0.4042279, 0.57009727, -0.4024121, 0.591315, -0.008697672, 0.0010109491, 0.09467411, 0
400, 221580771, 0.40420705, 0.5701133, -0.40238497, 0.5913324, -0.0071016774, -8.37056E-4, 0.062851906, 0
401, 221597438, 0.4042145, 0.57010734, -0.4023957, 0.59132576, 0.008596532, -0.011548914, 0.07831955, 0
402, 221614105, 0.40420097, 0.570116, -0.4023944, 0.59132737, 0.0014112608, -0.0011434923, 0.07232189, 0
403, 221630772, 0.4041714, 0.57013476, -0.40237924, 0.5913398, -0.0019374103, 0.001145504, 0.088251114, 0
404, 221647439, 0.40419146, 0.5701171, -0.402401, 0.59132826, 0.0019003071, -0.00959407, 0.06432152, 0
405, 221664106, 0.40418488, 0.5701205, -0.40239626, 0.5913329, -0.0017972677, 0.0027731252, 0.068323135, 0
406, 221680773, 0.40415075, 0.57014483, -0.40237206, 0.59134924, 0.002725964, -0.0066875075, 0.077280045, 0
407, 221697440, 0.40420434, 0.5701131, -0.4024169, 0.5913125, -0.014222353, 0.017329182, 0.07440281, 0
408, 221714107, 0.40425834, 0.57008153, -0.4024571, 0.5912788, -5.457069E-4, 0.0020212277, 0.071240425, 0
409, 221730774, 0.4042949, 0.57005864, -0.40249193, 0.5912521, 0.006270209, -4.4054404E-4, 0.06644058, 0
410, 221747441, 0.4042447, 0.5700834, -0.4024558, 0.5912871, -0.014591708, 0.0059528206, 0.073298454, 0
411, 221764108, 0.4041864, 0.570115, -0.40241006, 0.59132785, -0.0032280858, -0.0053314543, 0.071722984, 0
412, 221780775, 0.40412304, 0.5701632, -0.40234575, 0.59136826, -0.0054454464, -0.007984553, 0.08169556, 0
413, 221797442, 0.404214, 0.5700983, -0.40243864, 0.59130555, -0.0060568657, 0.0067062825, 0.07490635, 0
414, 221814109, 0.40418342, 0.5701128, -0.40240788, 0.5913334, 0.0035866005, 0.009051604, 0.07056522, 0
415, 221830776, 0.4041545, 0.5701303, -0.40238023, 0.59135514, -0.0048840935, -0.014202461, 0.076992035, 0
416, 221847443, 0.40407723, 0.57018507, -0.4023058, 0.59140575, -0.0062144427, -0.00523445, 0.07036781, 0
417, 221864110, 0.40407878, 0.5701844, -0.4023002, 0.59140897, -0.0052061756, -0.0038100018, 0.07190037, 0
418, 221880777, 0.40407032, 0.5701847, -0.40230328, 0.59141237, 0.0040748646, -5.473832E-4, 0.066981316, 0
419, 221897444, 0.40397918, 0.57024896, -0.40222067, 0.5914688, -0.007803396, -0.019467754, 0.06060028, 0
420, 221914111, 0.4038993, 0.57029414, -0.40216815, 0.59151554, -0.0027371396, 0.0022176956, 0.0830698, 0
421, 221930778, 0.40385053, 0.570326, -0.40211225, 0.5915562, -0.009753435, -0.0014915019, 0.07342243, 0
422, 221947445, 0.40384078, 0.57033473, -0.40210223, 0.5915612, -0.01714959, 0.007224609, 0.06951618, 0
423, 221964112, 0.40377048, 0.570384, -0.4020308, 0.59161013, -0.01103964, 0.0051542087, 0.06894207, 0
424, 221980779, 0.40378806, 0.5703757, -0.4020551, 0.59158987, -0.001384998, -0.0044512604, 0.065179825, 0
425, 221997446, 0.40385288, 0.57033634, -0.40211323, 0.5915441, -0.005789768, -0.0013097859, 0.07231903, 0
426, 222014113, 0.403758, 0.57039994, -0.40202457, 0.59160787, 4.3361515E-4, -0.002088058, 0.075161934, 0
427, 222030780, 0.4037065, 0.5704252, -0.4019896, 0.5916422, 0.0031585733, -0.0028142517, 0.07122803, 0
428, 222047447, 0.4036091, 0.5704969, -0.40189785, 0.5917019, -0.018461052, 0.0049043214, 0.07661247, 0
429, 222064114, 0.40363926, 0.57047826, -0.4019216, 0.5916832, -2.7939119E-5, -0.006421751, 0.07035637, 0
430, 222080781, 0.4036195, 0.5704952, -0.40190881, 0.591689, 0.004065142, 0.0031944471, 0.06937981, 0
431, 222097448, 0.40376735, 0.5703909, -0.40205696, 0.59158814, -0.010565793, -0.005053628, 0.07195377, 0
432, 222114115, 0.40384462, 0.5703388, -0.40212533, 0.591539, -0.0067458446, -4.0277035E-4, 0.065838814, 0
433, 222130782, 0.40378916, 0.5703713, -0.4020774, 0.59157825, -5.390015E-4, 0.0078593865, 0.074334145, 0
434, 222147449, 0.40375698, 0.5703982, -0.40204072, 0.59159917, -0.008488016, 0.0030424583, 0.076851845, 0
435, 222164116, 0.40365455, 0.5704698, -0.40194613, 0.5916644, 0.0076127397, -0.0024523842, 0.07222366, 0
436, 222180783, 0.4036352, 0.5704913, -0.40192592, 0.5916704, -0.008380059, -6.2829495E-4, 0.073210716, 0
437, 222197450, 0.40359864, 0.5705194, -0.40188015, 0.59169936, -0.0049767396, 0.009574625, 0.07622051, 0
438, 222214117, 0.40337116, 0.57067966, -0.40165818, 0.59185076, 0.0062236064, -2.4206453E-4, 0.07199764, 0
439, 222230784, 0.40334332, 0.5706942, -0.40163073, 0.5918743, -0.01018068, -0.0054617627, 0.06955814, 0
440, 222247451, 0.4033048, 0.5707264, -0.40159324, 0.591895, 0.0047611613, -6.8752584E-4, 0.061606407, 0
441, 222264118, 0.40326113, 0.5707611, -0.4015488, 0.5919214, 0.0070843548, -0.010947664, 0.06591892, 0
442, 222280785, 0.40319115, 0.5708141, -0.4014885, 0.5919588, -0.008666603, -0.008675432, 0.07673645, 0
443, 222297452, 0.4031775, 0.5708285, -0.40148076, 0.5919595, -0.007211087, -0.0017950325, 0.07349205, 0
444, 222314119, 0.40315422, 0.5708414, -0.40145054, 0.5919834, -0.006701589, 0.007808425, 0.056871414, 0
445, 222330786, 0.40313148, 0.5708601, -0.40142608, 0.5919974, -0.0060307146, 0.008858042, 0.062737465, 0
446, 222347453, 0.40319836, 0.5708151, -0.4014919, 0.59195065, -0.0049656755, -0.009954373, 0.05541897, 0
447, 222364120, 0.40306848, 0.5709134, -0.40135154, 0.5920395, 0.0034586394, 0.0050274767, 0.060990334, 0
448, 222380787, 0.40298715, 0.5709654, -0.40127894, 0.5920938, -0.004920861, 0.005415719, 0.06898022, 0
449, 222397454, 0.40306076, 0.5709128, -0.40136337, 0.59203726, -0.010507344, 0.0054548336, 0.065820694, 0
450, 222414121, 0.40304232, 0.5709177, -0.4013549, 0.5920507, -0.0015034599, 0.010892234, 0.072930336, 0
451, 222430788, 0.40305945, 0.5708975, -0.40139377, 0.59203225, -0.009762823, 0.013480737, 0.057746887, 0
452, 222447455, 0.40299872, 0.57093245, -0.4013393, 0.5920768, 0.0012950341, -0.002077106, 0.07516861, 0
453, 222464122, 0.40299848, 0.57093334, -0.40135273, 0.59206694, -6.7165645E-4, -0.0011048246, 0.061698914, 0
454, 222480789, 0.40301242, 0.5709206, -0.40136945, 0.5920583, 0.011454815, 0.01214033, 0.07109547, 0
455, 222497456, 0.40303364, 0.57090735, -0.40140137, 0.59203523, -0.00754468, -0.025025852, 0.06640339, 0
456, 222514123, 0.40301362, 0.570916, -0.4013818, 0.5920539, -0.0032030523, 0.007829212, 0.07802582, 0
457, 222530790, 0.40312216, 0.57084095, -0.4014688, 0.59199315, -0.003802626, 0.003545586, 0.0732193, 0
458, 222547457, 0.40315503, 0.5708194, -0.40150797, 0.591965, 0.008234105, 0.0043012835, 0.06962776, 0
459, 222564124, 0.4032446, 0.57073885, -0.4016108, 0.59191185, -0.012734092, 0.0016258332, 0.06424999, 0
460, 222580791, 0.4032262, 0.5707624, -0.40158406, 0.59191984, -0.007831335, 0.012511585, 0.06962013, 0
461, 222597458, 0.40335423, 0.5706767, -0.40170714, 0.59183186, -0.010913579, -0.011800143, 0.071826935, 0
462, 222614125, 0.40332714, 0.5706818, -0.40170267, 0.5918485, 0.0015596735, -0.0122105125, 0.064403534, 0
463, 222630792, 0.40332428, 0.5706865, -0.40169644, 0.5918501, 0.00840934, 0.0069031976, 0.08147144, 0
464, 222647459, 0.40342143, 0.5706214, -0.40179008, 0.5917832, -0.003997641, -0.016625118, 0.06969166, 0
465, 222664126, 0.40333915, 0.57067686, -0.40172815, 0.5918276, -8.694654E-4, -0.011706044, 0.074837685, 0
466, 222680793, 0.40349028, 0.5705728, -0.40187788, 0.59172326, -0.006664374, -3.8041905E-4, 0.06531811, 0
467, 222697460, 0.4036687, 0.5704431, -0.4020647, 0.59159976, -0.017832087, 0.010172745, 0.06622887, 0
468, 222714127, 0.4035973, 0.57049346, -0.4019926, 0.59164894, -0.008928561, -0.0020945398, 0.06973839, 0
469, 222730794, 0.4036423, 0.5704543, -0.4020461, 0.5916196, 0.0024767471, -0.0080980975, 0.068995476, 0
470, 222747461, 0.40357137, 0.57049626, -0.40198356, 0.5916699, 0.0047579203, -0.0027498798, 0.07651043, 0
471, 222764128, 0.40358526, 0.5704769, -0.402015, 0.5916579, -8.8477606E-4, -0.007825188, 0.0696888, 0
472, 222780795, 0.40345412, 0.57057345, -0.4018788, 0.5917468, -0.008124137, -0.011562996, 0.07028484, 0
473, 222797462, 0.40337947, 0.5706234, -0.40181163, 0.59179515, -0.009912465, 0.004523902, 0.062161446, 0
474, 222814129, 0.40328327, 0.5706815, -0.40172547, 0.5918633, -0.0018195072, 0.0014454583, 0.070628166, 0
475, 222830796, 0.4033393, 0.5706357, -0.40179333, 0.59182304, -3.7449595E-4, 0.0051790187, 0.07117462, 0
476, 222847463, 0.40324995, 0.570697, -0.40171394, 0.5918787, -0.0015536386, 0.0015426864, 0.069542885, 0
477, 222864130, 0.4031829, 0.57074344, -0.4016603, 0.5919161, 0.007810213, -0.010777124, 0.062996864, 0
478, 222880797, 0.40302315, 0.5708556, -0.40150717, 0.5920205, 0.0021544413, 0.0032813938, 0.07057476, 0
479, 222897464, 0.40306565, 0.5708231, -0.40155545, 0.5919901, -0.0066884016, -0.006869447, 0.05662918, 0
480, 222914131, 0.40310374, 0.57084674, -0.40143853, 0.5920206, -0.003289552, -0.009041099, 0.0669384, 0
481, 222930798, 0.40304855, 0.5708876, -0.40138578, 0.5920546, 0.006923202, -0.0063484386, 0.063536644, 0
482, 222947465, 0.40306666, 0.57088166, -0.4013952, 0.5920417, -0.009446552, 0.017987875, 0.062437057, 0
483, 222964132, 0.40304688, 0.5708933, -0.40137506, 0.5920576, 1.052746E-4, -0.0071157585, 0.076672554, 0
484, 222980799, 0.4030655, 0.5708709, -0.4014025, 0.5920479, -0.003151868, 0.0031857302, 0.07036781, 0
485, 222997466, 0.40313777, 0.5708213, -0.40147477, 0.59199756, -0.0053567113, -0.0037652992, 0.0878706, 0
486, 223014133, 0.40311342, 0.57083476, -0.40145382, 0.5920154, -0.0045025568, -0.017336335, 0.07072258, 0
487, 223030800, 0.4031137, 0.5708321, -0.40146142, 0.5920127, 0.0015432452, -0.010475828, 0.062202454, 0
488, 223047467, 0.40305302, 0.5708743, -0.4013994, 0.59205526, 0.003532287, 0.0070940778, 0.078279495, 0
489, 223064134, 0.40299502, 0.5709128, -0.4013487, 0.592092, 0.007971142, 0.0017644112, 0.064474106, 0
490, 223080801, 0.40291855, 0.57096064, -0.40127337, 0.59214896, 0.012171957, -0.010955711, 0.07602501, 0
491, 223097468, 0.40288138, 0.5709873, -0.40123484, 0.5921746, 0.004964893, 0.0013553826, 0.06712341, 0
492, 223114135, 0.40289813, 0.5709733, -0.4012479, 0.59216785, -0.0072598127, -0.028778635, 0.06408405, 0
493, 223130802, 0.4029373, 0.5709422, -0.40128952, 0.59214294, -0.008723822, -0.011214539, 0.08514786, 0
494, 223147469, 0.40287215, 0.5709801, -0.401234, 0.5921884, 0.0072764643, -0.012339479, 0.0754776, 0
495, 223164136, 0.40292564, 0.5709344, -0.4013003, 0.59215117, -8.338151E-4, 2.952606E-4, 0.08743, 0
496, 223180803, 0.40290573, 0.5709414, -0.40127012, 0.5921783, 0.002847108, 0.0072525484, 0.06108284, 0
497, 223197470, 0.40280172, 0.5710159, -0.40118298, 0.5922363, -0.011438164, 0.00978048, 0.06552887, 0
498, 223214137, 0.40279606, 0.57101077, -0.40117538, 0.5922502, -0.008711417, 0.006531272, 0.06798267, 0
499, 223230804, 0.40284622, 0.57098, -0.40121788, 0.59221697, -0.002615437, -0.0070426697, 0.07370663, 0
500, 223247471, 0.40288642, 0.5709466, -0.40125158, 0.59219897, -0.005678794, -0.0070203184, 0.071427345, 0
501, 223264138, 0.40289074, 0.57093877, -0.4012653, 0.5921943, 0.0080888225, -0.020412097, 0.07073307, 0
502, 223280805, 0.40291741, 0.57091314, -0.40131146, 0.59216964, 0.009205828, 0.002624042, 0.055639267, 0
503, 223297472, 0.4029717, 0.5708821, -0.4013682, 0.5921243, 0.0011979177, 0.005167396, 0.06717682, 0
504, 223314139, 0.40296474, 0.57088226, -0.4013633, 0.5921322, 0.0019977589, -0.011598534, 0.06932068, 0
505, 223330806, 0.40295765, 0.5708839, -0.40136322, 0.5921355, -0.0047041653, 3.4041022E-4, 0.072701454, 0
506, 223347473, 0.4029757, 0.5708698, -0.4013849, 0.592122, -0.012836796, -0.003053634, 0.06309986, 0
507, 223364140, 0.40296906, 0.5708669, -0.40138355, 0.5921302, -0.010111502, 0.017911434, 0.068927765, 0
508, 223380807, 0.4030379, 0.5708218, -0.40144393, 0.5920858, -0.013416141, 0.016873663, 0.058329582, 0
509, 223397474, 0.4030336, 0.5708237, -0.40144593, 0.5920857, -0.018214518, 5.540886E-4, 0.07925892, 0
510, 223414141, 0.40302265, 0.57082874, -0.401427, 0.5921011, -0.0018057611, 0.010529248, 0.06523323, 0
511, 223430808, 0.40301886, 0.57082975, -0.40142474, 0.59210414, 0.0110207535, -0.011772875, 0.08011627, 0
512, 223447475, 0.40302414, 0.5708224, -0.40143427, 0.5921012, 0.001216581, 0.008972704, 0.074910164, 0
513, 223464142, 0.40296403, 0.5708621, -0.40138635, 0.59213644, -0.005033288, -0.009299257, 0.066207886, 0
514, 223480809, 0.4029627, 0.57086515, -0.40138853, 0.5921329, -0.008835803, 0.020412544, 0.06688404, 0
515, 223497476, 0.40299118, 0.5708404, -0.40141773, 0.59211767, -0.022583637, 0.009174089, 0.058120728, 0
516, 223514143, 0.40297818, 0.5708475, -0.40139765, 0.5921331, -0.01584081, -0.0044555073, 0.06304741, 0
517, 223530810, 0.40297925, 0.5708436, -0.40138963, 0.59214175, -0.008505786, -0.01877576, 0.0724411, 0
518, 223547477, 0.40296894, 0.5708477, -0.40138885, 0.5921453, -0.00453329, -0.011351329, 0.067754745, 0
519, 223564144, 0.40291685, 0.570882, -0.40133482, 0.5921841, 0.0068340204, -0.006008922, 0.074412346, 0
520, 223580811, 0.4029047, 0.5708837, -0.4013287, 0.592195, -0.00553731, -0.020083534, 0.07113838, 0
521, 223597478, 0.40288952, 0.5709022, -0.40131068, 0.5921996, -0.012449336, 0.010280479, 0.07892513, 0
522, 223614145, 0.4028219, 0.57094836, -0.4012516, 0.5922413, -0.01197683, 0.011063444, 0.071704865, 0
523, 223630812, 0.40282938, 0.5709419, -0.40125567, 0.59223974, -0.0031044832, -9.977618E-4, 0.07259464, 0
524, 223647479, 0.40283015, 0.57094455, -0.40125102, 0.59223986, -0.004692096, -0.019123992, 0.06377697, 0
525, 223664146, 0.40281367, 0.5709547, -0.4012346, 0.59225225, -0.010346973, -0.0073488825, 0.07043743, 0
526, 223680813, 0.40283057, 0.57094544, -0.40123975, 0.5922461, 0.0029318195, 0.0034141603, 0.060177803, 0
527, 223697480, 0.40281394, 0.57095546, -0.40122944, 0.5922547, -0.0017858685, -0.01737098, 0.06224537, 0
528, 223714147, 0.40281656, 0.57095486, -0.40122592, 0.59225607, -0.007449128, -0.010882399, 0.06561756, 0
529, 223730814, 0.40281105, 0.5709525, -0.4012283, 0.5922605, -0.0012088699, 0.012575062, 0.07858944, 0
530, 223747481, 0.4028126, 0.570954, -0.40123102, 0.5922561, -0.0021925503, 0.0031589086, 0.06573582, 0
531, 223764148, 0.40279812, 0.5709605, -0.40122333, 0.59226495, -0.008985891, -0.0062704324, 0.06986332, 0
532, 223780815, 0.40279382, 0.57096493, -0.40121117, 0.5922718, -0.0034131545, 0.0021296313, 0.064655304, 0
533, 223797482, 0.40280902, 0.5709534, -0.4012249, 0.5922632, -0.0010267068, 8.777354E-4, 0.06915474, 0
534, 223814149, 0.40280333, 0.5709586, -0.4012187, 0.59226626, -0.011110494, -0.0027389277, 0.06376362, 0
535, 223830816, 0.4028215, 0.5709536, -0.4012312, 0.5922503, -0.0033640936, -0.0046450463, 0.05995941, 0
536, 223847483, 0.40287548, 0.5709199, -0.4012725, 0.59221804, -0.01119934, -0.008875476, 0.0723896, 0
537, 223864150, 0.40289107, 0.5708987, -0.40129304, 0.5922139, 0.0035916297, -0.001906342, 0.056957245, 0
538, 223880817, 0.40289593, 0.57089454, -0.40128833, 0.5922179, 0.003970596, -0.008384418, 0.060918808, 0
539, 223897484, 0.4028796, 0.57090366, -0.4012717, 0.59223145, -0.005324861, 0.005848887, 0.069740295, 0
540, 223914151, 0.40291566, 0.57088286, -0.40130702, 0.5922031, 0.0069946144, 0.0016146576, 0.072675705, 0
541, 223930818, 0.40286854, 0.5709164, -0.4012642, 0.5922317, -0.011492254, 0.0031454978, 0.06532192, 0
542, 223947485, 0.40291142, 0.5708847, -0.4012966, 0.5922112, -0.0028174925, -0.011309309, 0.07017422, 0
543, 223964152, 0.4029281, 0.57086986, -0.40131766, 0.59219986, -0.0045636874, -0.0015802366, 0.06781006, 0
544, 223980819, 0.402935, 0.5708669, -0.40131277, 0.5922013, -0.0069646635, -0.02483162, 0.057617188, 0
545, 223997486, 0.40291938, 0.5708802, -0.40131277, 0.59219927, -0.011944309, -0.0034523811, 0.06554699, 0
546, 224014153, 0.40293375, 0.57087016, -0.4013179, 0.5921957, 7.751429E-4, -0.0034429936, 0.063302994, 0
547, 224030820, 0.40292493, 0.57087684, -0.40131965, 0.59219414, 0.0026639393, 0.007849328, 0.06786823, 0
548, 224047487, 0.4029354, 0.5708745, -0.40131098, 0.59219503, -0.009191188, -0.016708711, 0.065216064, 0
549, 224064154, 0.40290833, 0.5708997, -0.4012833, 0.59220785, -0.019579511, -0.0040125046, 0.072211266, 0
550, 224080821, 0.40292448, 0.5708881, -0.40127888, 0.59221107, -9.979853E-5, -0.0044268975, 0.06250858, 0
551, 224097488, 0.40299025, 0.57084614, -0.40135065, 0.59215814, 7.0518337E-4, 0.013440281, 0.06761837, 0
552, 224114155, 0.40300313, 0.57083684, -0.40136302, 0.59215, -0.0014904961, -0.008106815, 0.07437134, 0
553, 224130822, 0.40299052, 0.57084924, -0.40136477, 0.5921454, -0.011712079, -0.0052878694, 0.06199932, 0
554, 224147489, 0.40296078, 0.570863, -0.4013368, 0.59217143, 4.7898825E-4, -0.0038759382, 0.06354809, 0
555, 224164156, 0.40297467, 0.57085365, -0.40135807, 0.5921566, -0.007121011, -0.0026238186, 0.074661255, 0
556, 224180823, 0.40296426, 0.5708573, -0.4013465, 0.592168, -0.012313217, -0.0153312, 0.060375214, 0
557, 224197490, 0.40289924, 0.5709067, -0.40128323, 0.59220725, -0.009059763, 0.00978048, 0.07715225, 0
558, 224214157, 0.40289092, 0.5708973, -0.40129873, 0.5922114, -0.009203705, 0.0010616865, 0.070139885, 0
559, 224230824, 0.40288767, 0.5708986, -0.40130144, 0.59221077, 0.00473054, -0.023393089, 0.07110596, 0
560, 224247491, 0.40291062, 0.5708817, -0.40132433, 0.5921959, -3.546033E-4, -0.009644584, 0.06859875, 0
561, 224264158, 0.40294856, 0.5708626, -0.4013579, 0.5921656, -0.004974169, -0.0059867944, 0.08149719, 0
562, 224280825, 0.40292242, 0.57088286, -0.40134162, 0.5921749, -0.00845069, 0.0043430803, 0.06486797, 0
563, 224297492, 0.40295175, 0.57086337, -0.40136677, 0.5921568, -0.010067135, 0.004386442, 0.06726265, 0
564, 224314159, 0.40311068, 0.5707622, -0.40150622, 0.59205157, -0.010816462, 0.002726411, 0.06689739, 0
565, 224330826, 0.40312812, 0.5707487, -0.4015241, 0.5920406, 0.00299038, -0.013069473, 0.06837845, 0
566, 224347493, 0.4030961, 0.57076216, -0.4014995, 0.5920661, -0.0036798054, -0.005759929, 0.08252144, 0
567, 224364160, 0.40308237, 0.57076746, -0.4014921, 0.5920754, -0.0021411423, -0.009505782, 0.07020092, 0
568, 224380827, 0.40311977, 0.5707502, -0.40151945, 0.59204805, -0.008236564, 0.010539083, 0.062472343, 0
569, 224397494, 0.4031376, 0.57073265, -0.40153933, 0.5920393, -0.003283964, -0.012095627, 0.06055641, 0
570, 224414161, 0.40316117, 0.5707204, -0.40156594, 0.59201705, -0.01228986, -0.014288066, 0.07715988, 0
571, 224430828, 0.40314853, 0.5707272, -0.4015474, 0.59203154, -0.0137154255, -0.009562108, 0.076592445, 0
572, 224447495, 0.4032176, 0.57067746, -0.4016056, 0.5919931, -9.148385E-4, 0.009515841, 0.06554222, 0
573, 224464162, 0.403204, 0.57069135, -0.4015884, 0.5920006, -0.00570975, -0.002785195, 0.07219887, 0
574, 224480829, 0.40320855, 0.5706937, -0.40158725, 0.5919961, -0.016481286, -0.01479164, 0.07384586, 0
575, 224497496, 0.4032379, 0.5706683, -0.40162355, 0.5919759, -0.008938506, 0.0025254728, 0.074038506, 0
576, 224514163, 0.4032438, 0.57067096, -0.4016207, 0.5919713, -0.0065880446, -0.014253197, 0.06894398, 0
577, 224530830, 0.403248, 0.5706664, -0.40163186, 0.5919652, -0.0018204013, -0.012561652, 0.07879925, 0
578, 224547497, 0.40325743, 0.5706595, -0.401636, 0.5919625, 0.0022750266, -0.0032351266, 0.07595825, 0
579, 224564164, 0.40328124, 0.57064515, -0.4016547, 0.59194744, -0.0029667993, -0.012511808, 0.08250713, 0
580, 224580831, 0.40330884, 0.57062876, -0.401678, 0.5919287, -0.0040256917, -0.008864747, 0.05182171, 0
581, 224597498, 0.4033236, 0.570615, -0.4017044, 0.59191406, -0.0089267725, 0.0077040447, 0.08575249, 0
582, 224614165, 0.4033954, 0.570566, -0.40178153, 0.59185994, -0.013517281, -0.0027729017, 0.066913605, 0
583, 224630832, 0.40339214, 0.57056624, -0.40179157, 0.5918551, -0.008520425, -0.018309511, 0.0634594, 0
584, 224647499, 0.40340757, 0.5705604, -0.40181103, 0.59183705, 0.004775354, -3.5940882E-4, 0.064554214, 0
585, 224664166, 0.40341574, 0.57055956, -0.40181807, 0.5918275, -0.0049133734, 0.006216119, 0.06456566, 0
586, 224680833, 0.40340012, 0.57056797, -0.401809, 0.5918362, -0.01213586, -0.0040203277, 0.07805061, 0
587, 224697500, 0.4033795, 0.57058215, -0.40178403, 0.59185356, -0.0067789243, -0.018980497, 0.08888149, 0
588, 224714167, 0.40334037, 0.5706098, -0.4017413, 0.5918826, -0.0061392304, 0.012618648, 0.059776306, 0
589, 224730834, 0.40336254, 0.5705966, -0.40175572, 0.5918705, -0.0069129206, -0.0058766026, 0.07071304, 0
590, 224747501, 0.4033562, 0.57059646, -0.4017503, 0.59187865, -0.005350118, 0.001664501, 0.07010174, 0
591, 224764168, 0.40339923, 0.5705699, -0.40178972, 0.591848, 0.0050974363, -0.0066173244, 0.06501484, 0
592, 224780835, 0.40341243, 0.57056224, -0.40181142, 0.59183174, -0.011426765, -0.006235341, 0.07527733, 0
593, 224797502, 0.403423, 0.5705576, -0.40182412, 0.59182036, -0.015157643, 0.0026193482, 0.07276058, 0
594, 224814169, 0.4034364, 0.5705437, -0.4018461, 0.59180963, -0.019428417, 0.015063432, 0.07370186, 0
595, 224830836, 0.4034386, 0.57054275, -0.4018487, 0.59180725, -0.0037081917, 0.0030726327, 0.06833744, 0
596, 224847503, 0.40348148, 0.57051295, -0.40188888, 0.5917797, -0.0011080655, 0.0067670783, 0.07871151, 0
597, 224864170, 0.40345106, 0.5705277, -0.40185973, 0.5918058, -0.001670871, -0.0077163377, 0.07709408, 0
598, 224880837, 0.40340474, 0.57056004, -0.40182608, 0.5918292, -0.0071967817, -0.0232639, 0.07946396, 0
599, 224897504, 0.40341973, 0.5705514, -0.40183625, 0.5918204, -0.012456042, -0.0055732955, 0.061154366, 0
600, 224914171, 0.40349036, 0.5705722, -0.40182936, 0.59175694, -0.0019479154, -0.009011819, 0.06593704, 0
601, 224930838, 0.403481, 0.5705775, -0.4018183, 0.59176564, -0.0050028907, 0.001897625, 0.08132267, 0
602, 224947505, 0.40354165, 0.5705259, -0.4018983, 0.59171975, -0.006042673, 0.0233913, 0.064133644, 0
603, 224964172, 0.40352654, 0.5705291, -0.40188876, 0.5917333, -0.009653413, -0.0141515, 0.07404709, 0
604, 224980839, 0.40350318, 0.570554, -0.40186268, 0.59174305, -0.0059969644, 6.9534883E-4, 0.0729332, 0
605, 224997506, 0.40351394, 0.57054555, -0.40188175, 0.59173095, -0.007828765, -0.009514499, 0.061611176, 0
606, 225014173, 0.40353033, 0.5705413, -0.40188023, 0.5917247, -0.016789846, -0.015313096, 0.06633091, 0
607, 225030840, 0.40351287, 0.5705565, -0.4018498, 0.5917427, -0.007211869, -0.00306928, 0.070744514, 0
608, 225047507, 0.40345225, 0.57058597, -0.4018106, 0.59178233, -0.012383177, -0.009409895, 0.06617546, 0
609, 225064174, 0.40340838, 0.57060844, -0.40177587, 0.59181416, -0.0012421733, -0.01054333, 0.07970142, 0
610, 225080841, 0.40341994, 0.5706032, -0.4017824, 0.59180677, 0.01065788, -0.0077375714, 0.0648756, 0
611, 225097508, 0.4034333, 0.57058495, -0.40180278, 0.5918013, -0.018370418, 0.001458422, 0.05954647, 0
612, 225114175, 0.40344247, 0.57057554, -0.40181035, 0.59179926, -0.023868613, 0.007269088, 0.07128906, 0
613, 225130842, 0.4034876, 0.5705417, -0.40185776, 0.5917689, -0.006555747, -0.0030308357, 0.0712204, 0
614, 225147509, 0.40349475, 0.57053995, -0.40187183, 0.5917561, -0.010057189, -0.009271317, 0.069046974, 0
615, 225164176, 0.4034674, 0.5705582, -0.4018472, 0.59177387, 0.0018596278, -0.011827188, 0.062535286, 0
616, 225180843, 0.4034531, 0.5705654, -0.4018348, 0.591785, 2.164723E-4, -0.007948792, 0.083052635, 0
617, 225197510, 0.40346003, 0.5705676, -0.40183434, 0.5917784, -0.0037591527, -0.011595628, 0.08173847, 0
618, 225214177, 0.40352762, 0.57051694, -0.40190443, 0.5917335, -0.008546912, 0.006398282, 0.07211113, 0
619, 225230844, 0.40354952, 0.57049924, -0.4019315, 0.5917174, -0.009523552, 1.5400043E-4, 0.074085236, 0
620, 225247511, 0.40355557, 0.5704962, -0.4019272, 0.5917192, -0.0086241355, -0.01995166, 0.064291, 0
621, 225264178, 0.40348032, 0.5705502, -0.401848, 0.5917722, -0.014957263, -0.0023506857, 0.06458473, 0
622, 225280845, 0.40350264, 0.5705369, -0.4018694, 0.59175533, -0.018371759, -0.01825542, 0.08834934, 0
623, 225297512, 0.40343633, 0.5705826, -0.4017981, 0.59180474, -7.552503E-4, -0.012868535, 0.0661087, 0
624, 225314179, 0.40343073, 0.5705799, -0.40180337, 0.59180766, -0.0022981602, -1.913271E-4, 0.07197571, 0
625, 225330846, 0.40342957, 0.5705879, -0.4017958, 0.5918059, -0.0068405024, 2.7514444E-4, 0.07505417, 0
626, 225347513, 0.40346065, 0.5705643, -0.40182057, 0.5917906, -0.0045008804, 7.5636787E-4, 0.06968403, 0
627, 225364180, 0.40348312, 0.5705503, -0.40183523, 0.59177876, 0.0019593146, -0.0069340426, 0.058265686, 0
628, 225380847, 0.40347403, 0.5705574, -0.40183046, 0.5917814, -0.0026898666, 4.6490695E-5, 0.07494545, 0
629, 225397514, 0.40350187, 0.5705402, -0.40186435, 0.59175605, -0.014950223, 0.0054061078, 0.081521034, 0
630, 225414181, 0.4035029, 0.57053655, -0.40186688, 0.5917572, 4.005352E-4, -0.0024016467, 0.0796566, 0
631, 225430848, 0.40349767, 0.5705368, -0.40186808, 0.5917597, -0.008897045, -0.01614233, 0.05834675, 0
632, 225447515, 0.4035316, 0.57051384, -0.4018953, 0.5917401, -0.010217895, 0.0021007983, 0.07368755, 0
633, 225464182, 0.40354326, 0.57050353, -0.4019184, 0.59172636, -0.0039241053, -0.011741135, 0.06935787, 0
634, 225480849, 0.40355307, 0.5704986, -0.401925, 0.59172, -0.011688051, 0.004624483, 0.06550217, 0
635, 225497516, 0.40357226, 0.57048714, -0.40194032, 0.5917075, -0.011089483, -0.0036338735, 0.06753063, 0
636, 225514183, 0.403584, 0.57048297, -0.40194762, 0.59169865, -0.020395556, -0.007837705, 0.070212364, 0
637, 225530850, 0.40357625, 0.5704882, -0.40194163, 0.59170294, 6.951253E-5, -0.00997583, 0.059728622, 0
638, 225547517, 0.4035719, 0.57048875, -0.40195456, 0.5916966, -0.007406437, -0.007193541, 0.059020996, 0
639, 225564184, 0.4035918, 0.5704764, -0.40198132, 0.5916767, 0.0027505504, 0.0076796818, 0.0712347, 0
640, 225580851, 0.40357316, 0.5704864, -0.40196285, 0.5916923, -0.0012122225, 0.0013998616, 0.082304955, 0
641, 225597518, 0.40354452, 0.5705055, -0.40192696, 0.5917179, -0.0073058563, 0.00902143, 0.05327511, 0
642, 225614185, 0.40354443, 0.5705089, -0.40191618, 0.5917221, -0.018184232, 2.814028E-4, 0.08688736, 0
643, 225630852, 0.40351996, 0.570522, -0.40187794, 0.59175205, -0.005400408, -0.0051510795, 0.060667038, 0
644, 225647519, 0.40352753, 0.5705107, -0.4018895, 0.59175, 0.010043443, -0.035581026, 0.07607651, 0
645, 225664186, 0.4035424, 0.57050395, -0.40190107, 0.59173846, 0.004942095, -0.00764839, 0.06292057, 0
646, 225680853, 0.4035369, 0.5705109, -0.40190032, 0.591736, -4.935166E-4, -0.008711417, 0.07167816, 0
647, 225697520, 0.4035876, 0.57048064, -0.40194446, 0.5917005, -0.0092099635, 0.0074905897, 0.06888199, 0
648, 225714187, 0.40359923, 0.57047045, -0.40195635, 0.5916943, -0.009477508, -0.006563011, 0.07043362, 0
649, 225730854, 0.40358445, 0.5704768, -0.4019505, 0.5917023, -0.00804032, -0.010492145, 0.066495895, 0
650, 225747521, 0.40360013, 0.5704623, -0.40195355, 0.59170353, -0.01297068, 9.9955E-4, 0.07294655, 0
651, 225764188, 0.40361658, 0.57045305, -0.4019692, 0.5916906, 0.0030928606, -0.006599667, 0.06137657, 0
652, 225780855, 0.4036277, 0.5704462, -0.40197456, 0.59168595, -0.005395938, -0.009997958, 0.07440472, 0
653, 225797522, 0.40361995, 0.5704519, -0.40196297, 0.5916936, 0.0068977214, -6.5534E-4, 0.064421654, 0
654, 225814189, 0.40363866, 0.5704425, -0.4019899, 0.5916717, -9.856921E-4, 0.0060569774, 0.06069565, 0
655, 225830856, 0.4036474, 0.5704391, -0.40200007, 0.5916621, -0.0064090104, 0.0030996776, 0.0667305, 0
656, 225847523, 0.40367237, 0.5704205, -0.40203324, 0.5916404, -0.0046988013, -0.009792773, 0.059277534, 0
657, 225864190, 0.4036903, 0.5704069, -0.40204528, 0.5916331, -8.325858E-5, -0.0015480508, 0.059523582, 0
658, 225880857, 0.40367827, 0.57041216, -0.40202877, 0.59164745, -0.017420487, -0.008376148, 0.07326126, 0
659, 225897524, 0.40368676, 0.57040185, -0.4020323, 0.5916492, -0.003094984, -0.020927519, 0.07275486, 0
660, 225914191, 0.40370056, 0.5703919, -0.40203807, 0.5916455, -0.008046467, -0.0074313586, 0.062791824, 0
661, 225930858, 0.40371966, 0.570387, -0.4020509, 0.5916284, 0.0018613042, -0.009023665, 0.064907074, 0
662, 225947525, 0.40371302, 0.5703852, -0.40205738, 0.5916303, -0.010797464, -0.007772216, 0.07810879, 0
663, 225964192, 0.40369317, 0.5703985, -0.402036, 0.59164566, -0.021232277, 0.002797041, 0.06809616, 0
664, 225980859, 0.40366372, 0.57041717, -0.40201536, 0.59166163, -0.010107926, 0.0014119314, 0.09334087, 0
665, 225997526, 0.40365568, 0.5704199, -0.4020141, 0.5916653, -0.007957284, 0.0020397792, 0.07593918, 0
666, 226014193, 0.4036842, 0.57039106, -0.4020464, 0.5916518, -0.009700462, -0.010785171, 0.062173843, 0
667, 226030860, 0.4036864, 0.5703883, -0.40205097, 0.59164983, -0.0037860859, -0.0030062492, 0.07144928, 0
668, 226047527, 0.40365756, 0.57041085, -0.40200767, 0.59167725, -0.017720554, 5.6727586E-4, 0.06299114, 0
669, 226064194, 0.403659, 0.5704103, -0.40201035, 0.5916749, -0.0020606776, -0.009295681, 0.063179016, 0
670, 226080861, 0.40366852, 0.5704015, -0.4020156, 0.59167343, -0.012543435, -0.008691972, 0.06921291, 0
671, 226097528, 0.4037056, 0.57038575, -0.4020338, 0.591651, -0.01053193, -0.005228862, 0.06246662, 0
672, 226114195, 0.40368965, 0.5703945, -0.40203673, 0.5916513, -0.011805954, -0.015970672, 0.069122314, 0
673, 226130862, 0.4037565, 0.5703546, -0.40211025, 0.5915943, -0.004800611, 0.003277594, 0.064585686, 0
674, 226147529, 0.4037506, 0.5703625, -0.40210012, 0.5915975, -0.00621299, -8.790764E-4, 0.06804943, 0
675, 226164196, 0.4037569, 0.5703644, -0.40210345, 0.5915891, -0.008135537, -0.010901844, 0.064450264, 0
676, 226180863, 0.40375668, 0.57036257, -0.40209723, 0.5915953, -0.0020529665, -0.0063956, 0.057686806, 0
677, 226197530, 0.403745, 0.5703751, -0.40207714, 0.5916049, -0.0052299798, -0.008074406, 0.074804306, 0
678, 226214197, 0.40375355, 0.5703604, -0.4020896, 0.59160465, 0.0077223727, -0.008680126, 0.0640049, 0
679, 226230864, 0.4037049, 0.5703969, -0.40204588, 0.5916324, -0.0035859302, -0.00880574, 0.0702858, 0
680, 226247531, 0.40367952, 0.57041204, -0.40202472, 0.5916495, -0.0058776084, 0.005019654, 0.05888748, 0
681, 226264198, 0.4036911, 0.5704172, -0.4020177, 0.59164125, -0.01870848, -0.016199995, 0.07787895, 0
682, 226280865, 0.40371063, 0.57040614, -0.4020255, 0.59163326, -0.02059873, 0.005260377, 0.06920338, 0
683, 226297532, 0.40369162, 0.5704257, -0.40201077, 0.5916376, 8.54043E-4, 0.0017317784, 0.07921314, 0
684, 226314199, 0.40369245, 0.5704253, -0.40200943, 0.5916384, -0.012299806, -0.016946305, 0.05799961, 0
685, 226330866, 0.4036947, 0.5704366, -0.40199453, 0.59163606, -0.00878853, 0.002166064, 0.08069515, 0
686, 226347533, 0.40369183, 0.57043785, -0.4019895, 0.59164023, 0.004524014, -0.0023453215, 0.0662384, 0
687, 226364200, 0.40368357, 0.5704443, -0.4019982, 0.5916336, -0.007848546, -0.008902968, 0.07257271, 0
688, 226380867, 0.40368384, 0.57044107, -0.40199402, 0.5916393, 0.0138785895, -0.0057498706, 0.07343674, 0
689, 226397534, 0.40364313, 0.5704692, -0.40196243, 0.59166163, 2.0451435E-4, -0.004609284, 0.082401276, 0
690, 226414201, 0.4035174, 0.57055116, -0.4018531, 0.5917425, -0.0067031537, -0.013163125, 0.07363701, 0
691, 226430868, 0.4035482, 0.5705302, -0.40189597, 0.59171253, 0.004947571, -0.014829861, 0.08421421, 0
692, 226447535, 0.4035197, 0.5705453, -0.4018794, 0.5917286, -0.011045228, -0.011566795, 0.06898403, 0
693, 226464202, 0.40351847, 0.57054883, -0.40187702, 0.5917279, -0.00276452, -0.0076787877, 0.07987118, 0
694, 226480869, 0.4035353, 0.57054293, -0.4018819, 0.59171873, -0.012097863, -0.0018962839, 0.07783127, 0
695, 226497536, 0.40350667, 0.57057005, -0.40184262, 0.5917388, -0.0015436922, -0.007271547, 0.06011772, 0
696, 226514203, 0.40348282, 0.5705776, -0.40182474, 0.59175986, -0.006560217, 0.0033153677, 0.07545662, 0
697, 226530870, 0.40348932, 0.57057416, -0.4018257, 0.59175813, -0.0023437568, -0.016385064, 0.07823181, 0
698, 226547537, 0.403493, 0.5705679, -0.4018352, 0.59175515, -0.002212443, -0.008618659, 0.06677151, 0
699, 226564204, 0.4035387, 0.57053155, -0.40188792, 0.5917232, 5.879508E-4, -0.011673635, 0.068927765, 0
700, 226580871, 0.40354815, 0.5705233, -0.4018928, 0.59172136, 0.0066533103, -0.005198688, 0.07118034, 0
701, 226597538, 0.4035409, 0.57051563, -0.40188763, 0.59173745, 0.0066985716, -0.004688855, 0.067801476, 0
702, 226614205, 0.40354702, 0.5705118, -0.40188745, 0.5917369, -0.0010282714, -0.009141456, 0.073028564, 0
703, 226630872, 0.40352455, 0.5705229, -0.40186346, 0.5917578, -0.0048312326, -0.015148367, 0.08046532, 0
704, 226647539, 0.40350166, 0.57054216, -0.4018274, 0.5917795, 0.0010277126, -0.01824335, 0.078611374, 0
705, 226664206, 0.40351856, 0.57052004, -0.4018529, 0.59177196, -0.0027400453, -0.008052501, 0.07703018, 0
706, 226680873, 0.40352997, 0.5705203, -0.40185848, 0.59176016, -0.011795896, 3.7639582E-4, 0.072333336, 0
707, 226697540, 0.4034548, 0.5705635, -0.40179425, 0.5918134, -0.021074254, -3.9450036E-4, 0.06798458, 0
708, 226714207, 0.40341854, 0.5705897, -0.40176275, 0.59183407, -0.0030518458, -0.004973834, 0.06922054, 0
709, 226730874, 0.40344205, 0.5705771, -0.40179095, 0.59181106, -0.0067243874, 0.008220136, 0.062045097, 0
710, 226747541, 0.40339983, 0.57060593, -0.40175942, 0.5918334, -0.0057490887, 0.0018341473, 0.07952213, 0
711, 226764208, 0.4033858, 0.57061887, -0.4017496, 0.59183717, 0.0067760185, 0.0030332943, 0.0733242, 0
712, 226780875, 0.40341666, 0.570598, -0.40177053, 0.591822, 2.631865E-4, -0.015107464, 0.06410217, 0
713, 226797542, 0.40348163, 0.57055736, -0.40182227, 0.59178185, 3.943886E-4, -6.0124986E-4, 0.06601906, 0
714, 226814209, 0.40348226, 0.5705585, -0.40182105, 0.5917812, -0.0122161005, 0.0070683737, 0.06412697, 0
715, 226830876, 0.40348527, 0.57054335, -0.40184078, 0.59178036, -0.011230967, -0.0049371775, 0.07829285, 0
716, 226847543, 0.40349093, 0.5705416, -0.40184668, 0.59177417, 0.0012611719, -0.004286308, 0.068683624, 0
717, 226864210, 0.40350226, 0.57053274, -0.40185517, 0.59176934, -0.013999734, 0.0050317235, 0.06648159, 0
718, 226880877, 0.40349063, 0.57054013, -0.40185225, 0.59177214, -0.007095307, 0.0047780364, 0.06753063, 0
719, 226897544, 0.40348426, 0.5705414, -0.40185797, 0.5917714, -0.0065984377, -0.004912591, 0.07538509, 0
720, 226914211, 0.4035055, 0.570556, -0.40183982, 0.5917549, -0.003940757, 0.015609921, 0.055794716, 0
721, 226930878, 0.40351292, 0.5705563, -0.40185145, 0.5917417, -0.0017529003, -0.011526116, 0.07498264, 0
722, 226947545, 0.40345204, 0.57060844, -0.4017792, 0.591782, -0.00842465, 0.0077449474, 0.06361771, 0
723, 226964212, 0.40346918, 0.5706046, -0.40178308, 0.5917714, 0.004831568, -0.014096962, 0.06537151, 0
724, 226980879, 0.4034292, 0.5706325, -0.4017365, 0.59180343, -0.004431703, -7.76037E-4, 0.057106018, 0
725, 226997546, 0.40341768, 0.5706378, -0.40173396, 0.5918079, 0.025300326, -0.011075291, 0.06847763, 0
726, 227014213, 0.40338477, 0.57065994, -0.4016904, 0.5918386, 0.005747524, -0.009479632, 0.0556736, 0
727, 227030880, 0.40337855, 0.5706589, -0.40168604, 0.59184664, -0.0026242656, -0.0024356206, 0.072348595, 0
728, 227047547, 0.40342018, 0.57062757, -0.4017353, 0.59181505, -1.2896697E-4, 0.006790994, 0.07071495, 0
729, 227064214, 0.40346012, 0.57059497, -0.40178716, 0.5917842, 0.009441746, -0.021140749, 0.057915688, 0
730, 227080881, 0.40349466, 0.5705735, -0.40182024, 0.59175897, -4.3897945E-4, -0.0030858198, 0.076597214, 0
731, 227097548, 0.40347967, 0.57057416, -0.40182397, 0.591766, 0.014615177, -0.0011240466, 0.07384968, 0
732, 227114215, 0.40354443, 0.57053393, -0.40188774, 0.5917172, -0.0014880375, 0.0026256067, 0.076291084, 0
733, 227130882, 0.40354478, 0.5705309, -0.40188548, 0.59172136, -0.00779792, -0.0078086485, 0.06428814, 0
734, 227147549, 0.403578, 0.57051384, -0.40192193, 0.5916905, -0.005000991, -0.0200509, 0.07262993, 0
735, 227164216, 0.40355685, 0.57052696, -0.4018948, 0.5917108, 0.010630723, 0.008654421, 0.06432915, 0
736, 227180883, 0.40356293, 0.57051945, -0.40191352, 0.59170103, 0.0039666845, -0.006027027, 0.06415367, 0
737, 227197550, 0.40353858, 0.5705363, -0.40187788, 0.59172565, -0.0035940884, -8.1157556E-4, 0.07312775, 0
738, 227214217, 0.4035428, 0.5705318, -0.4018821, 0.5917242, -0.009676994, 1.0259245E-4, 0.08150101, 0
739, 227230884, 0.40355057, 0.57052636, -0.4018865, 0.5917211, -0.007726843, -4.0321736E-4, 0.073233604, 0
740, 227247551, 0.4035289, 0.5705427, -0.40186375, 0.5917356, -0.016292417, -0.012348867, 0.07339859, 0
741, 227264218, 0.40351027, 0.57056236, -0.40183297, 0.59175026, -0.0182362, 0.002217472, 0.075240135, 0
742, 227280885, 0.40355384, 0.57053375, -0.40186447, 0.5917268, 0.0058850963, -0.00825031, 0.060962677, 0
743, 227297552, 0.40364087, 0.57047266, -0.40194672, 0.59167045, -0.006086705, -0.0044137104, 0.075242996, 0
744, 227314219, 0.40367097, 0.57045645, -0.40195933, 0.591657, 0.0070886016, -0.0032067404, 0.063549995, 0
745, 227330886, 0.40365255, 0.5704669, -0.40194905, 0.5916664, -0.01109116, 0.010321829, 0.06165123, 0
746, 227347553, 0.40368256, 0.5704452, -0.40197855, 0.59164685, -5.614645E-4, -0.0015500623, 0.067154884, 0
747, 227364220, 0.40369198, 0.5704381, -0.40199152, 0.5916385, -0.005352465, -0.017666912, 0.06336975, 0
748, 227380887, 0.4036932, 0.5704354, -0.40199816, 0.59163564, -0.0091818, -0.021016477, 0.06457901, 0
749, 227397554, 0.4036886, 0.5704372, -0.4019963, 0.5916384, 0.0035957647, -0.008273779, 0.07942295, 0
750, 227414221, 0.40372044, 0.5704214, -0.4020202, 0.5916157, 0.0114573855, 0.0020093815, 0.0797863, 0
751, 227430888, 0.4036807, 0.5704479, -0.40198258, 0.59164274, -0.0073278723, -0.0022387058, 0.06951046, 0
752, 227447555, 0.4037381, 0.5704031, -0.40205246, 0.5915993, -0.001249661, 0.006699801, 0.06308365, 0
753, 227464222, 0.40373954, 0.5703993, -0.40205193, 0.5916023, -0.007335472, 0.0020446966, 0.07531452, 0
754, 227480889, 0.40377766, 0.5703769, -0.40208116, 0.591578, -0.009444987, -0.0032507724, 0.07860279, 0
755, 227497556, 0.4037937, 0.5703579, -0.40210152, 0.59157145, -0.012275443, -0.0143768005, 0.06640816, 0
756, 227514223, 0.40382427, 0.57033664, -0.40213716, 0.5915471, -0.014369536, -0.00981289, 0.0743494, 0
757, 227530890, 0.4038298, 0.5703293, -0.40214887, 0.59154224, 4.6144248E-4, -0.009825629, 0.076828, 0
758, 227547557, 0.40383902, 0.57032096, -0.4021506, 0.59154284, -0.008290878, -0.009620668, 0.07743454, 0
759, 227564224, 0.40382415, 0.5703311, -0.40212533, 0.59156036, 0.008650175, -0.01151494, 0.08280182, 0
760, 227580891, 0.40382937, 0.57032853, -0.4021245, 0.59156, -0.020353649, 0.004372584, 0.065675735, 0
761, 227597558, 0.40383834, 0.5703182, -0.4021269, 0.59156215, -0.012973921, -0.0024447846, 0.07221508, 0
762, 227614225, 0.40383863, 0.57031703, -0.40214607, 0.59155005, -0.009509135, 0.01163966, 0.074142456, 0
763, 227630892, 0.40385637, 0.5702994, -0.40216428, 0.59154254, 0.00976964, -0.009897377, 0.07921219, 0
764, 227647559, 0.40381685, 0.5703305, -0.40212545, 0.59156597, 0.001194565, -0.014440278, 0.08439541, 0
765, 227664226, 0.40380332, 0.57033616, -0.40212023, 0.59157324, 0.0029271257, -0.010421739, 0.06978035, 0
766, 227680893, 0.40386623, 0.5703041, -0.40217474, 0.5915241, -0.0035942001, -0.0053985086, 0.07639694, 0
767, 227697560, 0.40391177, 0.57027096, -0.40221643, 0.5914967, 0.0016600307, -0.012501527, 0.06895542, 0
768, 227714227, 0.40395132, 0.57024795, -0.40225986, 0.5914623, -0.015556167, 0.01376661, 0.079330444, 0
769, 227730894, 0.40391713, 0.5702718, -0.40222955, 0.59148324, 0.0151670305, -0.0034903784, 0.075276375, 0
770, 227747561, 0.4039136, 0.5702671, -0.40223235, 0.59148836, -2.4128224E-4, 6.586927E-4, 0.06617069, 0
771, 227764228, 0.4038977, 0.5702828, -0.40220314, 0.5915039, 0.008247181, 0.0022036142, 0.07358551, 0
772, 227780895, 0.40389517, 0.5702816, -0.40220943, 0.59150255, -0.008719352, 0.0013980735, 0.07885265, 0
773, 227797562, 0.40387055, 0.5702965, -0.40218168, 0.5915238, -5.481655E-4, -0.01017878, 0.07205868, 0
774, 227814229, 0.40387318, 0.57030284, -0.4021867, 0.5915126, -0.0012540194, -0.0021611468, 0.07724953, 0
775, 227830896, 0.4039057, 0.57028466, -0.40221426, 0.591489, -0.011329983, -0.0130294645, 0.07051182, 0
776, 227847563, 0.40389678, 0.5702823, -0.40222314, 0.59149134, -0.024017697, -1.8573926E-4, 0.072916985, 0
777, 227864230, 0.40393123, 0.5702536, -0.40225688, 0.5914725, -9.1070356E-4, -0.015227044, 0.08223629, 0
778, 227880897, 0.4039169, 0.57026404, -0.4022426, 0.5914819, 0.008297583, 0.005114647, 0.07578468, 0
779, 227897564, 0.40389425, 0.5702791, -0.40221348, 0.59150285, -0.0077504236, -0.0039836713, 0.052684784, 0
780, 227914231, 0.40389323, 0.5702834, -0.4022216, 0.59149396, -7.906771E-4, -0.010866306, 0.07134819, 0
781, 227930898, 0.4038891, 0.5702849, -0.4022174, 0.5914981, -0.016211394, 0.006875929, 0.06970215, 0
782, 227947565, 0.40385368, 0.5702971, -0.4022018, 0.591521, -0.004947683, 0.00464974, 0.07323551, 0
783, 227964232, 0.40385506, 0.57029796, -0.4022053, 0.5915169, -0.0077710985, -0.011526787, 0.0744915, 0
784, 227980899, 0.40389022, 0.57028234, -0.40222093, 0.5914973, 0.012683354, -0.0042328886, 0.08213806, 0
785, 227997566, 0.40388843, 0.5702778, -0.4022178, 0.5915051, -9.92174E-4, -0.024389734, 0.075948715, 0
786, 228014233, 0.40384918, 0.5703004, -0.40218416, 0.591533, 0.0072318735, -0.013346406, 0.072016716, 0
787, 228030900, 0.40384355, 0.5703056, -0.4021871, 0.5915299, -0.0068118926, 0.003078444, 0.0792923, 0
788, 228047567, 0.40383592, 0.5703087, -0.40217665, 0.59153926, -0.009344742, -5.882861E-4, 0.07537174, 0
789, 228064234, 0.4038719, 0.5702848, -0.40220124, 0.5915208, -5.1575614E-4, -0.013961961, 0.066734314, 0
790, 228080901, 0.40382868, 0.5703101, -0.40215987, 0.5915541, -0.013646918, -0.009731754, 0.06787968, 0
791, 228097568, 0.40382072, 0.5703112, -0.4021617, 0.59155726, -0.0082779145, -0.020964174, 0.070827484, 0
792, 228114235, 0.40383887, 0.5702941, -0.4021759, 0.59155166, -0.0032654125, 0.0055384277, 0.07741547, 0
793, 228130902, 0.4038173, 0.57031494, -0.40214226, 0.5915691, 0.009405984, -0.013439387, 0.07962322, 0
794, 228147569, 0.40373266, 0.5703748, -0.40206432, 0.59162223, 0.001152768, 0.012601661, 0.06275463, 0
795, 228164236, 0.40370703, 0.5703902, -0.4020349, 0.5916448, -0.006197679, 0.005541333, 0.064294815, 0
796, 228180903, 0.40373364, 0.5703661, -0.4020646, 0.5916297, 3.8757146E-4, 0.0049646697, 0.07182312, 0
797, 228197570, 0.40369818, 0.57038003, -0.40203714, 0.5916591, 0.0027979352, -0.012141224, 0.075847626, 0
798, 228214237, 0.4037356, 0.57036066, -0.4020593, 0.5916373, -0.010185039, 0.0022876551, 0.062809944, 0
799, 228230904, 0.4038145, 0.5703008, -0.40213737, 0.59158814, 7.7257253E-4, -0.0073846444, 0.073960304, 0
800, 228247571, 0.40374568, 0.5703512, -0.40206152, 0.5916381, -0.0052534486, -0.0021848392, 0.06134224, 0
801, 228264238, 0.4037534, 0.5703441, -0.4020799, 0.59162724, -0.014369424, -0.008426662, 0.07290077, 0
802, 228280905, 0.4037401, 0.5703584, -0.40206203, 0.5916344, -2.9906034E-4, 0.009117988, 0.077095985, 0
803, 228297572, 0.40374562, 0.5703569, -0.4020648, 0.59163046, -0.0073249666, 0.009521652, 0.08294678, 0
804, 228314239, 0.40381178, 0.570315, -0.40212134, 0.5915872, -1.8842143E-4, 0.009921963, 0.059381485, 0
805, 228330906, 0.40376055, 0.5703505, -0.40206578, 0.59162545, 0.002439644, 0.017399367, 0.06852627, 0
806, 228347573, 0.40380505, 0.5703294, -0.40211686, 0.5915809, 0.006780489, 0.0039881417, 0.07395077, 0
807, 228364240, 0.40382904, 0.5703182, -0.4021332, 0.5915643, -0.007939739, -2.9548412E-4, 0.061392784, 0
808, 228380907, 0.4037975, 0.57033956, -0.40210164, 0.5915866, 4.8390553E-5, -0.008282943, 0.07238293, 0
809, 228397574, 0.40381095, 0.5703283, -0.40211865, 0.5915767, 0.0031182293, -2.0250274E-4, 0.075196266, 0
810, 228414241, 0.40385005, 0.57030123, -0.40215313, 0.5915527, 0.005652084, 0.0013395131, 0.07555103, 0
811, 228430908, 0.40388498, 0.5702721, -0.4021871, 0.5915339, -0.0021584646, 0.0022577043, 0.08332157, 0
812, 228447575, 0.40388516, 0.57027876, -0.40217647, 0.5915345, -9.1729715E-4, 0.0051157647, 0.07009792, 0
813, 228464242, 0.40402216, 0.5701812, -0.40231204, 0.5914428, -0.0088572595, 0.005331231, 0.06619263, 0
814, 228480909, 0.4040261, 0.57018167, -0.40231207, 0.5914396, 0.0010056966, -0.018216306, 0.06937599, 0
815, 228497576, 0.40399772, 0.57020175, -0.40229094, 0.5914539, -0.004268762, -0.012182574, 0.07138252, 0
816, 228514243, 0.40402082, 0.5701824, -0.40232158, 0.5914361, -0.0056186686, -0.005391803, 0.07592487, 0
817, 228530910, 0.40393472, 0.57023907, -0.4022427, 0.5914939, 0.00586051, 0.010047355, 0.076664925, 0
818, 228547577, 0.40394762, 0.57022274, -0.4022759, 0.5914782, -0.006892134, 0.011605463, 0.075862885, 0
819, 228564244, 0.4039251, 0.5702336, -0.40225452, 0.59149766, -0.0046136426, 0.019234408, 0.07899094, 0
820, 228580911, 0.40391058, 0.57024527, -0.40222865, 0.59151393, -0.014009234, -0.0011077302, 0.07614803, 0
821, 228597578, 0.40389916, 0.5702533, -0.40221664, 0.59152216, -0.0047794892, -0.0010923079, 0.072146416, 0
822, 228614245, 0.40392086, 0.570233, -0.4022404, 0.59151083, -0.012995266, 0.0014076846, 0.07587814, 0
823, 228630912, 0.40387973, 0.5702508, -0.40220803, 0.59154373, 0.0038593982, -0.0014354002, 0.07021904, 0
824, 228647579, 0.4038961, 0.5702414, -0.4022337, 0.591524, -0.008876706, -0.003461545, 0.08137512, 0
825, 228664246, 0.40393668, 0.57021546, -0.40226516, 0.5915001, 1.6092932E-5, 0.0027592673, 0.07467747, 0
826, 228680913, 0.40396997, 0.5701859, -0.4022958, 0.5914849, -0.012143906, 0.0056618066, 0.068348885, 0
827, 228697580, 0.4040406, 0.5701399, -0.4023666, 0.59143287, -0.0028944928, -0.0042981543, 0.071790695, 0
828, 228714247, 0.40411806, 0.57008284, -0.40245503, 0.5913748, -0.003495519, 0.004012281, 0.06904793, 0
829, 228730914, 0.40408757, 0.57010686, -0.40241277, 0.5914012, 0.0046703033, 6.752326E-4, 0.06432438, 0
830, 228747581, 0.40405408, 0.5701377, -0.40237466, 0.5914204, -0.009069486, -0.007784062, 0.06640339, 0
831, 228764248, 0.40404236, 0.57015145, -0.40237167, 0.59141713, 0.015292533, -0.012148153, 0.07879734, 0
832, 228780915, 0.40402266, 0.57016647, -0.40236408, 0.59142125, 0.0022760325, 0.0021305254, 0.07889843, 0
833, 228797582, 0.40400994, 0.5701787, -0.4023543, 0.5914249, 0.0018477816, -0.0027659729, 0.07556057, 0
834, 228814249, 0.4039568, 0.5702238, -0.40230313, 0.5914524, -0.0014847965, 2.6083962E-4, 0.062799454, 0
835, 228830916, 0.40397364, 0.5702162, -0.40231836, 0.59143794, -0.0035844774, 0.0070487047, 0.06874561, 0
836, 228847583, 0.40399253, 0.5702071, -0.40233082, 0.5914253, 0.00274161, -0.0022230598, 0.065561295, 0
837, 228864250, 0.4040045, 0.57019377, -0.40234756, 0.59141856, -0.0042351233, -0.007505118, 0.071988106, 0
838, 228880917, 0.4040135, 0.57018673, -0.4023494, 0.5914179, 0.007855363, 0.002974287, 0.07323551, 0
839, 228897584, 0.4040209, 0.5701776, -0.40235326, 0.591419, -0.0011809306, -0.003000885, 0.064092636, 0
840, 228914251, 0.40408808, 0.5701733, -0.40237287, 0.5913639, -0.003939304, -0.022682542, 0.06029606, 0
841, 228930918, 0.40414834, 0.57013637, -0.40243042, 0.5913194, -0.021078277, 0.00428899, 0.059580803, 0
842, 228947585, 0.40415037, 0.57013726, -0.4024342, 0.59131455, -0.0162295, -0.0027597144, 0.07517147, 0
843, 228964252, 0.4041146, 0.57015836, -0.40240785, 0.59133655, -0.004902645, -0.009707615, 0.07174587, 0
844, 228980919, 0.40411747, 0.5701508, -0.40240374, 0.5913448, 0.0036789116, 0.01199527, 0.066137314, 0
845, 228997586, 0.40412, 0.5701463, -0.40240666, 0.59134513, -0.0016572368, -0.012624011, 0.061074257, 0
846, 229014253, 0.4041563, 0.5701243, -0.40242958, 0.591326, 0.004958076, -0.005132081, 0.07291603, 0
847, 229030920, 0.4041446, 0.5701352, -0.40240893, 0.5913377, -0.009946103, -0.009662242, 0.08147335, 0
848, 229047587, 0.40412614, 0.5701484, -0.4023993, 0.59134406, -0.0036941103, -0.010571492, 0.061566353, 0
849, 229064254, 0.40412733, 0.5701472, -0.4023933, 0.5913484, 0.011346524, -0.0047619436, 0.063261986, 0
850, 229080921, 0.40412676, 0.57015425, -0.40238148, 0.5913501, -0.0069876853, -0.010087363, 0.072859764, 0
851, 229097588, 0.40416816, 0.5701228, -0.40241385, 0.5913301, 0.008626259, -0.005509371, 0.074873924, 0
852, 229114255, 0.4041592, 0.57013404, -0.4023975, 0.5913365, -0.017106341, -0.002465795, 0.06647301, 0
853, 229130922, 0.40414974, 0.5701408, -0.4023838, 0.5913457, 0.004541448, 3.3012865E-4, 0.06461811, 0
854, 229147589, 0.40413386, 0.5701487, -0.40237266, 0.5913566, -0.015752858, -1.4975368E-5, 0.061901093, 0
855, 229164256, 0.40412587, 0.5701564, -0.40235427, 0.5913671, -0.0124937035, -0.013042204, 0.06726265, 0
856, 229180923, 0.4041907, 0.5701089, -0.40241033, 0.59133047, -0.0061061503, -0.011484319, 0.06334305, 0
857, 229197590, 0.40420452, 0.5700919, -0.4024262, 0.59132653, 0.008857595, -0.01456254, 0.078250885, 0
858, 229214257, 0.40420628, 0.57008976, -0.4024303, 0.5913246, -0.004590956, 0.0066168774, 0.073018074, 0
859, 229230924, 0.4042149, 0.57007575, -0.40244782, 0.5913204, -0.0031181176, 0.0065558585, 0.073301315, 0
860, 229247591, 0.40420496, 0.5700813, -0.40244532, 0.59132355, -0.0088790525, -0.00590253, 0.065834045, 0
861, 229264258, 0.40421236, 0.57007575, -0.4024424, 0.5913259, -0.0053078737, 7.092066E-4, 0.06512356, 0
862, 229280925, 0.40423545, 0.5700669, -0.40244645, 0.5913157, -0.0015911887, -0.0059599727, 0.07744312, 0
863, 229297592, 0.40418315, 0.5701072, -0.40239826, 0.5913455, 0.0073901205, -0.0053379363, 0.069293976, 0
864, 229314259, 0.40419042, 0.5701049, -0.4024013, 0.59134066, -5.6895224E-4, -0.008330104, 0.07860851, 0
865, 229330926, 0.40419528, 0.5701021, -0.40240717, 0.591336, -0.01651973, 0.0075654667, 0.05345249, 0
866, 229347593, 0.40419072, 0.5701155, -0.40239316, 0.5913358, -0.001647514, -3.225292E-4, 0.068122864, 0
867, 229364260, 0.40419713, 0.5701094, -0.40239456, 0.5913363, 9.3607226E-4, 0.0063493326, 0.06479645, 0
868, 229380927, 0.4042357, 0.57008386, -0.40243277, 0.5913086, -0.004258592, -8.734886E-4, 0.066352844, 0
869, 229397594, 0.40424293, 0.57007724, -0.4024433, 0.59130275, -0.0075417743, 0.00968571, 0.062849045, 0
870, 229414261, 0.4042803, 0.57004803, -0.40247557, 0.59128344, -2.863201E-4, 4.6267183E-4, 0.06432152, 0
871, 229430928, 0.40426356, 0.5700631, -0.40245822, 0.5912922, 1.0728622E-4, -0.002151759, 0.073373795, 0
872, 229447595, 0.40425786, 0.5700671, -0.40245914, 0.5912916, -0.0050208834, -0.01067699, 0.07849598, 0
873, 229464262, 0.40424562, 0.57007617, -0.4024579, 0.5912921, -0.007699239, 0.010769748, 0.07504368, 0
874, 229480929, 0.4042329, 0.5700683, -0.40246361, 0.59130436, -0.005244955, -0.011166931, 0.080085754, 0
875, 229497596, 0.4042963, 0.57002705, -0.4025262, 0.5912582, -0.015237548, -0.008273556, 0.062485695, 0
876, 229514263, 0.40432018, 0.5700201, -0.4025327, 0.5912442, -0.009150285, 0.0029047744, 0.06376171, 0
877, 229530930, 0.4043207, 0.57002383, -0.40252423, 0.591246, -0.005786862, -0.0037232789, 0.062802315, 0
878, 229547597, 0.40425625, 0.57007164, -0.40245476, 0.5912912, 0.0053985086, -0.0059322575, 0.075240135, 0
879, 229564264, 0.4042583, 0.57006925, -0.40245846, 0.5912898, -0.0048267622, -0.0076003345, 0.081926346, 0
880, 229580931, 0.4042451, 0.57007194, -0.40243927, 0.59130937, -0.00149519, -0.0017210498, 0.06917, 0
881, 229597598, 0.40423167, 0.5700849, -0.4024298, 0.5913123, -0.009319484, -0.013311314, 0.074728966, 0
882, 229614265, 0.40425727, 0.57006896, -0.40245897, 0.59129035, -0.009638772, 0.01640071, 0.067910194, 0
883, 229630932, 0.40422994, 0.57009834, -0.40243953, 0.59129393, 0.0023094476, -0.016745592, 0.062690735, 0
884, 229647599, 0.40423578, 0.57009083, -0.40244848, 0.59129107, -0.01404086, -0.0044979746, 0.06839657, 0
885, 229664266, 0.40424156, 0.57008386, -0.40245432, 0.5912898, -0.004426674, -0.013506664, 0.07549, 0
886, 229680933, 0.40424952, 0.5700862, -0.40244806, 0.59128636, 0.0013815336, -0.0028182748, 0.07584572, 0
887, 229697600, 0.40424734, 0.5700791, -0.4024489, 0.59129417, -0.0059785247, -0.018440489, 0.06538582, 0
888, 229714267, 0.40426788, 0.57006454, -0.40246734, 0.5912818, -0.009910453, -0.0067782537, 0.058563232, 0
889, 229730934, 0.4042715, 0.5700619, -0.4024676, 0.5912815, -0.0043039653, -0.01152701, 0.06596184, 0
890, 229747601, 0.40429932, 0.57004166, -0.4024917, 0.59126556, -0.0071106176, 0.002181263, 0.06430435, 0
891, 229764268, 0.40432078, 0.57002974, -0.40250564, 0.5912529, 0.002195456, -0.017944291, 0.062374115, 0
892, 229780935, 0.40430927, 0.5700434, -0.40248004, 0.59126496, -0.004959976, -9.052275E-5, 0.06878185, 0
893, 229797602, 0.40434405, 0.5700201, -0.40251124, 0.59124255, -0.0035036774, 0.0043915827, 0.07538891, 0
894, 229814269, 0.40432456, 0.5700356, -0.4024938, 0.5912528, -0.003409802, 0.009850663, 0.06263733, 0
895, 229830936, 0.4043141, 0.5700447, -0.40249145, 0.59125274, -0.015702903, -0.009581107, 0.080506325, 0
896, 229847603, 0.40431777, 0.570039, -0.4025109, 0.5912426, -0.0025680522, -0.0039014185, 0.06391907, 0
897, 229864270, 0.40430954, 0.5700428, -0.40251747, 0.5912401, -0.005031947, 3.9092416E-4, 0.06498146, 0
898, 229880937, 0.40443665, 0.5699644, -0.40263513, 0.5911486, -0.005607046, 0.012805058, 0.064398766, 0
899, 229897604, 0.40439355, 0.5699857, -0.40260532, 0.5911778, 0.007077873, -0.005326314, 0.061573982, 0
900, 229914271, 0.40436435, 0.5700013, -0.40257597, 0.59120274, -0.003781057, 0.009818701, 0.07960415, 0
901, 229930938, 0.404367, 0.57000256, -0.40257716, 0.59119886, 0.0028010644, -0.0155665595, 0.07211876, 0
902, 229947605, 0.40437922, 0.5699873, -0.40258574, 0.59119934, -0.017632267, 0.0029937325, 0.06958294, 0
903, 229964272, 0.40437305, 0.5699838, -0.40257576, 0.59121376, 0.001577331, 0.0018616394, 0.0680027, 0
904, 229980939, 0.40437087, 0.5699787, -0.40256438, 0.5912279, -0.0165546, -0.002286761, 0.06869984, 0
905, 229997606, 0.40438384, 0.5699641, -0.40258038, 0.59122217, 0.0017735753, 0.0041960087, 0.067463875, 0
906, 230014273, 0.4044089, 0.5699512, -0.40259236, 0.59120935, -0.007577983, 0.006836144, 0.068122864, 0
907, 230030940, 0.40440208, 0.5699613, -0.40257722, 0.5912146, 0.0049333777, 0.0015900711, 0.07304478, 0
908, 230047607, 0.40442857, 0.5699447, -0.40261123, 0.59118944, -0.0020157516, 0.005775798, 0.06797123, 0
909, 230064274, 0.40439618, 0.5699661, -0.40257207, 0.59121746, -0.0014016498, 0.003976519, 0.06908798, 0
910, 230080941, 0.40436867, 0.5699745, -0.4025526, 0.5912416, -0.005600676, 0.005511606, 0.07517052, 0
911, 230097608, 0.4043418, 0.5699947, -0.4025184, 0.5912638, -0.0072038225, 0.005574413, 0.08098602, 0
912, 230114275, 0.40435317, 0.56997997, -0.4025304, 0.59126204, 2.2451876E-4, -0.019839456, 0.067154884, 0
913, 230130942, 0.40435484, 0.5699818, -0.4025393, 0.59125304, -0.00621109, -0.013885295, 0.07326317, 0
914, 230147609, 0.40435976, 0.569982, -0.4025403, 0.59124863, -0.008000869, 0.0031323105, 0.06014347, 0
915, 230164276, 0.404322, 0.56999844, -0.4025156, 0.5912754, -7.655319E-5, -0.0031356632, 0.07409954, 0
916, 230180943, 0.40432492, 0.56998575, -0.40253088, 0.5912754, -0.010405087, 0.012976045, 0.06811428, 0
917, 230197610, 0.404306, 0.5699923, -0.4025308, 0.5912821, -0.0012881052, -0.006288537, 0.06964016, 0
918, 230214277, 0.4043044, 0.57000375, -0.402515, 0.59128296, 0.001100466, -0.0020207807, 0.06171131, 0
919, 230230944, 0.40428352, 0.5700166, -0.4024952, 0.59129834, -0.005137222, -0.005597435, 0.07593441, 0
920, 230247611, 0.40427774, 0.5700137, -0.40249515, 0.5913049, -0.011368092, -2.2887727E-4, 0.076132774, 0
921, 230264278, 0.4042656, 0.5700215, -0.40247062, 0.5913223, -0.014865846, -0.016283812, 0.055970192, 0
922, 230280945, 0.40432084, 0.5699854, -0.40251234, 0.5912911, 0.0012752531, -0.0056103985, 0.07941151, 0
923, 230297612, 0.40433753, 0.5699785, -0.4025204, 0.59128094, 0.011954032, -0.013455257, 0.06303978, 0
924, 230314279, 0.40430328, 0.5700013, -0.4024807, 0.59130937, -0.0032515547, -0.011727055, 0.07861042, 0
925, 230330946, 0.4043099, 0.57000434, -0.40249836, 0.59128994, -0.0015949884, -0.01036966, 0.075707436, 0
926, 230347613, 0.40430155, 0.57001555, -0.40247974, 0.5912974, -0.013908094, 0.0016638305, 0.05985737, 0
927, 230364280, 0.40430605, 0.57000875, -0.40250432, 0.5912841, -0.013947097, 0.008715888, 0.0708704, 0
928, 230380947, 0.40429685, 0.5700178, -0.40249005, 0.5912914, -0.007302392, 0.016075946, 0.064650536, 0
929, 230397614, 0.4043008, 0.5700227, -0.40247598, 0.5912936, -0.010123908, -0.018501956, 0.07777119, 0
930, 230414281, 0.40432838, 0.56999964, -0.40249977, 0.59128076, -0.002736469, -0.025934432, 0.06621075, 0
931, 230430948, 0.4043454, 0.5699908, -0.4025058, 0.59127355, -0.005598776, -0.02100329, 0.07389641, 0
932, 230447615, 0.4043498, 0.5699928, -0.40250698, 0.5912677, -0.0042741266, -0.014333886, 0.07584286, 0
933, 230464282, 0.40434816, 0.5699993, -0.40250835, 0.59126186, -0.018529112, -5.9230933E-5, 0.0780592, 0
934, 230480949, 0.40435356, 0.5699931, -0.40251687, 0.59125835, -0.022251498, 0.006606149, 0.0681057, 0
935, 230497616, 0.40434015, 0.56999344, -0.40251678, 0.5912672, -0.013609033, 0.0012565899, 0.07822132, 0
936, 230514283, 0.40432566, 0.57000667, -0.40249017, 0.5912824, -0.011203587, -5.384427E-4, 0.07486153, 0
937, 230530950, 0.4043239, 0.57000506, -0.40248626, 0.5912878, 0.0026918782, -0.010495945, 0.064237595, 0
938, 230547617, 0.40433204, 0.57000107, -0.40247968, 0.5912905, -0.0012999513, 6.244952E-4, 0.0680542, 0
939, 230564284, 0.40433517, 0.5699993, -0.40249065, 0.59128255, 0.0090649035, -0.0073021683, 0.07748222, 0
940, 230580951, 0.40435147, 0.56999624, -0.40251312, 0.59125924, -0.005292116, 0.0069780746, 0.05304718, 0
941, 230597618, 0.40429327, 0.57003397, -0.40245995, 0.5912989, -0.011055286, -0.0045636874, 0.07204437, 0
942, 230614285, 0.40430307, 0.5700272, -0.4024657, 0.5912949, -0.012142006, 0.0021998144, 0.07814312, 0
943, 230630952, 0.40425456, 0.5700566, -0.4024263, 0.59132636, -0.01486607, 0.016707147, 0.074668884, 0
944, 230647619, 0.40425587, 0.5700542, -0.40242156, 0.591331, -0.0028129106, 0.012860935, 0.07339287, 0
945, 230664286, 0.40426427, 0.5700509, -0.40242583, 0.59132546, -0.0035567617, 0.006600561, 0.066020966, 0
946, 230680953, 0.40435717, 0.56998295, -0.40250358, 0.5912746, 0.011940397, -0.008456836, 0.06981659, 0
947, 230697620, 0.40431815, 0.57000214, -0.40247673, 0.5913012, 0.002917403, -0.0057049445, 0.056401253, 0
948, 230714287, 0.40431145, 0.5699995, -0.40247333, 0.5913104, -0.006716788, 0.0024622187, 0.068258286, 0
949, 230730954, 0.404317, 0.57000566, -0.40246814, 0.5913043, -0.005510824, 0.003172543, 0.065226555, 0
950, 230747621, 0.40433648, 0.56999034, -0.4024921, 0.5912896, -0.009876702, 0.008704712, 0.058008194, 0
951, 230764288, 0.40433764, 0.5699916, -0.40249744, 0.59128386, -0.0038825318, 0.004518985, 0.07142067, 0
952, 230780955, 0.40434223, 0.56998813, -0.40249997, 0.5912823, 0.0013027453, 0.005760376, 0.06645775, 0
953, 230797622, 0.40434918, 0.5699798, -0.4025071, 0.59128076, -0.006627606, -0.003788768, 0.073560715, 0
954, 230814289, 0.40435514, 0.56997454, -0.40252072, 0.5912725, -0.002806205, -0.013603222, 0.062262535, 0
955, 230830956, 0.4043418, 0.5699903, -0.40250906, 0.5912744, 9.754105E-4, -0.010012039, 0.07371998, 0
956, 230847623, 0.4043647, 0.5699779, -0.402537, 0.5912517, 0.0025756515, -0.0071671666, 0.0740881, 0
957, 230864290, 0.4044218, 0.5699402, -0.40259597, 0.5912087, 0.0011783603, 0.007373022, 0.07046509, 0
958, 230880957, 0.40441215, 0.56994516, -0.40259215, 0.59121317, 0.0012507786, -2.9593115E-4, 0.07336521, 0
959, 230897624, 0.40440124, 0.56994617, -0.40259036, 0.5912209, -0.008656209, -0.0018120195, 0.062763214, 0
960, 230914291, 0.4044027, 0.56995386, -0.40261567, 0.5911953, -0.0044572954, 0.006295019, 0.07515526, 0
961, 230930958, 0.4044459, 0.5699287, -0.4026494, 0.59116685, -0.0124056395, -0.005795691, 0.06770897, 0
962, 230947625, 0.40443364, 0.5699365, -0.4026454, 0.59117043, -0.011923745, -0.0018012909, 0.07786751, 0
963, 230964292, 0.40440103, 0.5699618, -0.40262187, 0.5911844, -0.0018558281, 0.0034729443, 0.08102512, 0
964, 230980959, 0.40439892, 0.5699576, -0.40262738, 0.5911861, -0.0039942884, -0.008123802, 0.075507164, 0
965, 230997626, 0.40438247, 0.5699745, -0.40262496, 0.5911827, -0.0022157957, 0.005607046, 0.07911873, 0
966, 231014293, 0.40439543, 0.56997, -0.40262848, 0.5911758, -0.017013248, 0.012281814, 0.07124615, 0
967, 231030960, 0.4043789, 0.5699729, -0.40261412, 0.59119415, -0.0070891604, 0.0060905046, 0.08389187, 0
968, 231047627, 0.404375, 0.5699802, -0.40261185, 0.59119135, -0.0047648493, -0.0037632876, 0.07462597, 0
969, 231064294, 0.40439177, 0.56996125, -0.40263483, 0.59118253, -0.015092935, -0.0036059346, 0.07885456, 0
970, 231080961, 0.40442127, 0.56993777, -0.4026608, 0.5911672, 0.004089505, -0.017164454, 0.07586956, 0
971, 231097628, 0.40441358, 0.5699519, -0.40264812, 0.59116745, -0.010153746, -0.008688396, 0.06962013, 0
972, 231114295, 0.404403, 0.569965, -0.40262514, 0.5911777, -0.0069538234, -0.012619988, 0.060433388, 0
973, 231130962, 0.4043896, 0.5699719, -0.40262657, 0.5911793, 0.0057689813, 0.005338607, 0.08168888, 0
974, 231147629, 0.40439987, 0.56995595, -0.4026441, 0.5911757, -0.008144029, 0.006363861, 0.06610012, 0
975, 231164296, 0.404363, 0.56997776, -0.40261352, 0.59120077, -0.005615316, 0.006096763, 0.06793976, 0
976, 231180963, 0.40437078, 0.5699681, -0.40263978, 0.5911869, 0.00537314, 0.00240567, 0.0614233, 0
977, 231197630, 0.40433678, 0.5699974, -0.40258652, 0.59121823, 0.0075078, -0.005810443, 0.06338501, 0
978, 231214297, 0.4043292, 0.57000166, -0.40258777, 0.5912184, 0.0060743, 0.00417701, 0.07895088, 0
979, 231230964, 0.40441772, 0.56993985, -0.4026615, 0.5911672, 0.00708279, -0.015063879, 0.06463909, 0
980, 231247631, 0.40441284, 0.5699486, -0.40267065, 0.5911558, -0.01056624, -3.5069181E-4, 0.07333851, 0
981, 231264298, 0.40441585, 0.5699453, -0.4026572, 0.59116614, -0.008973263, -0.011872115, 0.07717705, 0
982, 231280965, 0.4044975, 0.56989276, -0.40274534, 0.59110093, -0.006095422, -0.003029271, 0.073786736, 0
983, 231297632, 0.40452218, 0.56987494, -0.40276515, 0.59108776, -0.01691222, 0.004823633, 0.06763649, 0
984, 231314299, 0.40457523, 0.5698415, -0.4028278, 0.5910411, 6.096316E-4, -0.0021551119, 0.07541084, 0
985, 231330966, 0.4045795, 0.5698355, -0.40281293, 0.5910539, 0.005288987, 0.0067158937, 0.064144135, 0
986, 231347633, 0.4044492, 0.5699189, -0.40270743, 0.59113467, 5.785633E-4, -0.0184501, 0.06006813, 0
987, 231364300, 0.4044721, 0.5698954, -0.4027325, 0.5911246, -0.012400834, -0.010431349, 0.0675993, 0
988, 231380967, 0.404416, 0.56993115, -0.40270475, 0.59114736, 0.0012676538, 0.0050909547, 0.07696438, 0
989, 231397634, 0.40440872, 0.5699308, -0.4026961, 0.5911585, -0.010792882, 0.0063553676, 0.07234478, 0
990, 231414301, 0.40439844, 0.5699357, -0.40270147, 0.59115714, 0.0030265888, 0.0062308707, 0.065135956, 0
991, 231430968, 0.40440288, 0.56993496, -0.40270692, 0.5911511, 0.003794356, 0.010001311, 0.070632935, 0
992, 231447635, 0.40440375, 0.5699274, -0.4027187, 0.59114975, 8.5594284E-4, -0.00837503, 0.07388115, 0
993, 231464302, 0.4044109, 0.5699233, -0.40271303, 0.5911527, -0.006588268, 0.009955714, 0.059952736, 0
994, 231480969, 0.4044175, 0.5699162, -0.40271866, 0.5911511, 5.701815E-4, -0.015241572, 0.070038795, 0
995, 231497636, 0.40441623, 0.56992024, -0.4027189, 0.59114784, -0.005876826, -0.0036101812, 0.0653677, 0
996, 231514303, 0.4044123, 0.56992364, -0.40271458, 0.5911504, 0.0091913, -0.009780033, 0.08289814, 0
997, 231530970, 0.40440288, 0.56992203, -0.40271986, 0.5911549, -0.0037184733, -0.0038851022, 0.08767891, 0
998, 231547637, 0.4044005, 0.56992257, -0.4027117, 0.59116155, -0.0038249772, -0.014164463, 0.07569218, 0
999, 231564304, 0.4043966, 0.5699265, -0.4027192, 0.59115535, -9.4568334E-4, 0.006120679, 0.059646606, 0
1000, 231580971, 0.40441346, 0.5699189, -0.40271887, 0.59115124, -0.00829233, -0.0050290413, 0.057668686, 0
1001, 231597638, 0.40441224, 0.5699174, -0.40272158, 0.5911517, 3.967355E-5, -0.01851492, 0.07410717, 0
1002, 231614305, 0.40437514, 0.56994224, -0.40267873, 0.5911823, -0.009271876, -0.012802599, 0.070334435, 0
1003, 231630972, 0.4042917, 0.5700058, -0.40258753, 0.5912403, 0.01758667, -0.011197999, 0.055104256, 0
1004, 231647639, 0.40424246, 0.5700349, -0.4025472, 0.5912733, 0.005580001, -0.008713429, 0.07913685, 0
1005, 231664306, 0.4042382, 0.5700392, -0.40255642, 0.59126586, -0.003446905, 0.0042324415, 0.07455921, 0
1006, 231680973, 0.404194, 0.5700675, -0.40250665, 0.5913024, -7.9693546E-4, 0.004129402, 0.06832123, 0
1007, 231697640, 0.40428537, 0.5700091, -0.40260142, 0.5912319, -0.0049656755, 0.011555843, 0.07094288, 0
1008, 231714307, 0.4043282, 0.56998175, -0.40263382, 0.59120685, -0.002962776, 8.784059E-5, 0.06322384, 0
1009, 231730974, 0.40429518, 0.5700022, -0.40261152, 0.5912249, -0.005324973, 0.005419519, 0.061733246, 0
1010, 231747641, 0.40428656, 0.57000023, -0.4025976, 0.5912422, -0.005050834, 0.010268632, 0.06088066, 0
1011, 231764308, 0.4043004, 0.56999725, -0.40261737, 0.5912221, -0.0032171337, -0.012648822, 0.06285858, 0
1012, 231780975, 0.40433037, 0.56997544, -0.40262505, 0.5912175, 0.011949897, 0.0062708794, 0.071582794, 0
1013, 231797642, 0.40434274, 0.56997234, -0.40263867, 0.59120274, 0.0033759398, -0.019164896, 0.072315216, 0
1014, 231814309, 0.40435982, 0.56995314, -0.40265542, 0.5911981, -0.008016851, 0.0053017274, 0.06161976, 0
1015, 231830976, 0.40435237, 0.5699495, -0.4026646, 0.5912004, -0.002277597, -0.0038904664, 0.07666874, 0
1016, 231847643, 0.40433562, 0.56995493, -0.40265244, 0.59121484, 0.0013617526, -0.007723043, 0.07535362, 0
1017, 231864310, 0.40435943, 0.5699458, -0.40266925, 0.591196, 8.9852205E-5, -0.004451484, 0.07537937, 0
1018, 231880977, 0.4043392, 0.5699574, -0.40265006, 0.59121186, -0.006055748, -0.008277803, 0.06719494, 0
1019, 231897644, 0.40437955, 0.5699366, -0.4026767, 0.5911862, -0.011605128, -0.0016099638, 0.068743706, 0
1020, 231914311, 0.40443823, 0.56989646, -0.4027159, 0.591158, -0.0018224128, -0.0054132603, 0.06629181, 0
1021, 231930978, 0.40444726, 0.56989014, -0.40272662, 0.5911505, 0.009885307, 0.003272006, 0.07510185, 0
1022, 231947645, 0.40446058, 0.56988746, -0.40273654, 0.59113723, -0.011682687, 0.007906548, 0.06205845, 0
1023, 231964312, 0.40445605, 0.56988454, -0.4027506, 0.59113353, -0.005403761, 0.0074865664, 0.06510162, 0
1024, 231980979, 0.40445682, 0.5698892, -0.40275046, 0.59112865, -0.00782977, 0.0046691857, 0.07836914, 0
1025, 231997646, 0.40446112, 0.56988966, -0.4027546, 0.5911224, -0.0041525355, -0.008744945, 0.076807976, 0
1026, 232014313, 0.40446863, 0.56988114, -0.40276492, 0.59111845, 4.4702592E-6, -0.0011716549, 0.06990051, 0
1027, 232030980, 0.4044682, 0.5698729, -0.40277085, 0.5911227, 0.005996182, -0.003933381, 0.06602764, 0
1028, 232047647, 0.4045017, 0.569849, -0.40279835, 0.59110403, 0.0037060683, -7.4608624E-4, 0.06370735, 0
1029, 232064314, 0.40455836, 0.56981, -0.40286303, 0.5910589, -0.008984773, -0.009870332, 0.07244778, 0
1030, 232080981, 0.4045023, 0.5698588, -0.4028014, 0.5910922, 0.0036409143, 0.001552968, 0.061655045, 0
1031, 232097648, 0.4045035, 0.56985945, -0.4027848, 0.59110206, 4.2132193E-5, -0.0055976585, 0.07914066, 0
1032, 232114315, 0.40446502, 0.56988615, -0.40274563, 0.5911294, 0.0036904225, 0.0028734826, 0.06510067, 0
1033, 232130982, 0.40448505, 0.56986964, -0.4027562, 0.5911244, 0.0067614904, -0.0067205876, 0.0738821, 0
1034, 232147649, 0.40447965, 0.5698784, -0.40274653, 0.59112626, 0.00442198, 0.0033314605, 0.063150406, 0
1035, 232164316, 0.40445593, 0.5698938, -0.40272105, 0.59114504, 0.003273906, -0.013631608, 0.06692314, 0
1036, 232180983, 0.4044497, 0.56990355, -0.40272614, 0.59113634, -0.021451656, 3.296816E-4, 0.0632782, 0
1037, 232197650, 0.4044817, 0.56988204, -0.4027466, 0.59112114, 0.005910465, -0.008476505, 0.073153496, 0
1038, 232214317, 0.40451068, 0.5698584, -0.4027784, 0.59110236, -0.001700263, 0.0048884517, 0.07705498, 0
1039, 232230984, 0.40450707, 0.5698537, -0.40277767, 0.5911099, -3.160473E-4, -0.009122457, 0.06574726, 0
1040, 232247651, 0.40448135, 0.5698788, -0.4027558, 0.59111816, -0.013028235, 0.0029836744, 0.07418728, 0
1041, 232264318, 0.40450248, 0.5698607, -0.4027579, 0.5911198, -0.0023219644, -0.011701574, 0.06646156, 0
1042, 232280985, 0.40449953, 0.56986105, -0.40276435, 0.59111726, -0.0061992435, 0.00418975, 0.061930656, 0
1043, 232297652, 0.4045057, 0.5698585, -0.40277058, 0.59111106, -0.02050452, 0.002837497, 0.07004166, 0
1044, 232314319, 0.40450153, 0.569861, -0.40276992, 0.5911119, 0.002721829, -0.0077894265, 0.06289196, 0
1045, 232330986, 0.40451592, 0.5698452, -0.4027821, 0.591109, -0.0065993317, 1.4975368E-5, 0.05717182, 0
1046, 232347653, 0.40450522, 0.5698623, -0.4027555, 0.59111816, -0.004874594, -0.007621568, 0.071437836, 0
1047, 232364320, 0.40450948, 0.56985235, -0.40275985, 0.5911216, -0.002600238, -0.009535063, 0.08370876, 0
1048, 232380987, 0.40448913, 0.5698655, -0.40274468, 0.5911332, -0.0013696874, -0.009285622, 0.06266022, 0
1049, 232397654, 0.40452257, 0.56983477, -0.40278378, 0.5911136, -0.0022811731, -0.0040281503, 0.06547737, 0
1050, 232414321, 0.4045227, 0.5698345, -0.40278953, 0.59110975, 0.008396152, -0.008787636, 0.07212162, 0
1051, 232430988, 0.40451774, 0.56983715, -0.40278184, 0.59111583, -0.005547368, -0.008497292, 0.06688404, 0
1052, 232447655, 0.40452445, 0.56983817, -0.40278485, 0.5911082, -0.00571165, -0.015181447, 0.06946564, 0
1053, 232464322, 0.40454257, 0.5698227, -0.4027971, 0.5911023, 0.0031937766, 0.009284058, 0.07634354, 0
1054, 232480989, 0.4045418, 0.5698229, -0.4027948, 0.5911042, 8.399617E-4, -0.010942747, 0.07515049, 0
1055, 232497656, 0.40451607, 0.569843, -0.40276954, 0.59111965, -0.019168472, 0.004868559, 0.08374691, 0
1056, 232514323, 0.40449032, 0.5698503, -0.4027483, 0.5911446, -0.0055397684, -0.0068578245, 0.072753906, 0
1057, 232530990, 0.40450248, 0.5698489, -0.402754, 0.5911338, -0.0037665286, -9.2377904E-4, 0.077778816, 0
1058, 232547657, 0.40449974, 0.5698461, -0.40274698, 0.5911432, 0.0010647039, -0.015748052, 0.06466198, 0
1059, 232564324, 0.40447193, 0.56986487, -0.40272725, 0.5911575, 0.0039498094, -0.008236452, 0.07050514, 0
1060, 232580991, 0.40445498, 0.5698789, -0.40271226, 0.591166, -0.001065598, -0.005809549, 0.06974697, 0
1061, 232597658, 0.40448126, 0.5698647, -0.40273604, 0.5911454, -0.0017066331, 0.007932698, 0.06691742, 0
1062, 232614325, 0.40450904, 0.5698265, -0.4027668, 0.5911423, 4.958635E-4, -0.0010402293, 0.0627079, 0
1063, 232630992, 0.40449023, 0.56984425, -0.40273735, 0.5911581, -0.017502405, 0.0038372704, 0.07199192, 0
1064, 232647659, 0.40447652, 0.56984615, -0.4027196, 0.59117764, -0.0054398584, -5.060333E-4, 0.08125019, 0
1065, 232664326, 0.40446377, 0.56985056, -0.40272275, 0.59118, -0.0041801394, -0.023288261, 0.06391525, 0
1066, 232680993, 0.4044651, 0.5698475, -0.40272093, 0.59118325, -0.012528683, -0.0045214435, 0.07927227, 0
1067, 232697660, 0.4044618, 0.5698481, -0.40272337, 0.5911833, 0.005762164, 0.004760379, 0.069509506, 0
1068, 232714327, 0.40438297, 0.5699013, -0.40264606, 0.5912387, -0.0014147252, -0.008465107, 0.070218086, 0
1069, 232730994, 0.40439165, 0.5699063, -0.40265188, 0.5912239, -0.017350752, -0.0018484521, 0.07595062, 0
1070, 232747661, 0.40442216, 0.56989044, -0.40267012, 0.5912059, -0.0025612349, 0.008284507, 0.06709576, 0
1071, 232764328, 0.40444767, 0.56987816, -0.40268406, 0.5911908, -0.001467139, -0.009204264, 0.07386875, 0
1072, 232780995, 0.40448645, 0.5698552, -0.4027192, 0.5911625, 0.0031428158, -0.0073774923, 0.07262802, 0
1073, 232797662, 0.4044792, 0.5698645, -0.40270975, 0.59116495, -0.0068049636, -0.011081772, 0.06435013, 0
1074, 232814329, 0.40451378, 0.5698448, -0.40273458, 0.5911434, 1.9970883E-4, -0.012761695, 0.07503414, 0
1075, 232830996, 0.40452078, 0.56983376, -0.40274715, 0.5911407, 0.0050110486, -0.006855366, 0.0740881, 0
1076, 232847663, 0.4045219, 0.56983787, -0.40275115, 0.5911331, -0.009306967, 0.0058285473, 0.060302734, 0
1077, 232864330, 0.40451452, 0.56983984, -0.4027474, 0.5911388, -0.017032133, 0.0109322425, 0.06835842, 0
1078, 232880997, 0.40451315, 0.56984675, -0.4027289, 0.5911458, -0.0016862935, 0.002926455, 0.07586193, 0
1079, 232897664, 0.40452686, 0.56983715, -0.40271953, 0.59115195, 0.0026306356, -7.7871914E-4, 0.08939743, 0
1080, 232914331, 0.40450585, 0.5698823, -0.4026979, 0.59113765, -0.001053193, -0.016843488, 0.06804943, 0
1081, 232930998, 0.40452483, 0.56987333, -0.40271914, 0.5911189, 0.0038233008, -0.019426629, 0.070485115, 0
1082, 232947665, 0.40454474, 0.569862, -0.40275106, 0.5910943, 0.006297254, -0.009247178, 0.06972027, 0
1083, 232964332, 0.40449306, 0.5699031, -0.40269735, 0.59112656, -0.0036114105, -0.007320049, 0.06597328, 0
1084, 232980999, 0.40448967, 0.56990683, -0.40271103, 0.591116, -0.010318699, -0.0042939074, 0.074017525, 0
1085, 232997666, 0.40450412, 0.56989413, -0.40271023, 0.5911189, -0.0045686048, 5.2324386E-4, 0.06429386, 0
1086, 233014333, 0.40449694, 0.56990826, -0.4027038, 0.59111464, 0.008459519, 2.9280197E-4, 0.07015133, 0
1087, 233031000, 0.40446475, 0.5699249, -0.40265822, 0.5911517, -0.0022143428, -0.002200485, 0.058872223, 0
1088, 233047667, 0.40442574, 0.5699467, -0.4026263, 0.59117925, 5.954385E-4, -0.0125372885, 0.07090187, 0
1089, 233064334, 0.40442947, 0.5699408, -0.40263432, 0.5911768, -0.0080540655, 0.00641281, 0.06377888, 0
1090, 233081001, 0.40443447, 0.56993264, -0.40265423, 0.59116775, 0.002528602, -0.014025661, 0.06832409, 0
1091, 233097668, 0.40443784, 0.56992835, -0.40265882, 0.59116626, -0.0076358733, 0.016152835, 0.05888939, 0
1092, 233114335, 0.40440005, 0.5699607, -0.4026258, 0.59118354, 0.014559187, -0.00985491, 0.06877804, 0
1093, 233131002, 0.40440795, 0.56995875, -0.4026316, 0.59117603, -0.015531468, 0.008699795, 0.07354355, 0
1094, 233147669, 0.40442643, 0.56994355, -0.40265462, 0.5911623, 0.0045926324, -0.008034173, 0.065481186, 0
1095, 233164336, 0.40438566, 0.56997365, -0.4026064, 0.59119415, -6.290772E-4, 0.01300376, 0.07487583, 0
1096, 233181003, 0.40436828, 0.56998557, -0.40258712, 0.5912076, 0.00910413, -0.013183911, 0.07254219, 0
1097, 233197670, 0.4043564, 0.56999373, -0.4025735, 0.5912172, -0.002497422, 0.009304398, 0.06741238, 0
1098, 233214337, 0.40433773, 0.57000995, -0.402574, 0.59121394, 0.002780166, -0.009005784, 0.067705154, 0
1099, 233231004, 0.40433818, 0.57001704, -0.4025684, 0.59121066, 0.0037257376, 0.0023236407, 0.061772346, 0
1100, 233247671, 0.4043471, 0.570006, -0.4025632, 0.5912187, -0.01100589, -0.0016037055, 0.065766335, 0
1101, 233264338, 0.40434557, 0.57000756, -0.4025736, 0.5912112, -0.014521637, 0.0016003528, 0.059664726, 0
1102, 233281005, 0.40438676, 0.5699794, -0.4026162, 0.5911809, -9.5328275E-4, -0.008459072, 0.07807255, 0
1103, 233297672, 0.4044093, 0.5699692, -0.40263408, 0.59116334, -0.010399499, -0.009109271, 0.06536865, 0
1104, 233314339, 0.40443438, 0.56995296, -0.40265322, 0.5911487, 0.0022549105, -0.010974933, 0.06829643, 0
1105, 233331006, 0.40448764, 0.5699187, -0.40270555, 0.59110975, 7.061892E-4, -0.0023180528, 0.07417488, 0
1106, 233347673, 0.40447864, 0.56991124, -0.40270343, 0.5911246, 0.010678331, 0.008137437, 0.06336975, 0
1107, 233364340, 0.4044474, 0.56992865, -0.40267885, 0.59114593, -0.005606264, -7.1054767E-4, 0.065709114, 0
1108, 233381007, 0.40445894, 0.5699245, -0.40268508, 0.59113777, -0.008019421, -0.0018357119, 0.070575714, 0
1109, 233397674, 0.4044622, 0.5699232, -0.4026808, 0.59113955, 8.047584E-4, -0.0010482757, 0.07619095, 0
1110, 233414341, 0.4044667, 0.56992227, -0.40267092, 0.59114414, -0.008587815, -0.0013759458, 0.07439232, 0
1111, 233431008, 0.40446842, 0.5699258, -0.40267962, 0.5911336, -0.0061230254, -0.011655083, 0.07583046, 0
1112, 233447675, 0.4044648, 0.5699244, -0.40268528, 0.5911337, -0.0093670925, 0.009205828, 0.073096275, 0
1113, 233464342, 0.4044658, 0.5699283, -0.40267184, 0.59113854, -0.0018833202, -0.012417709, 0.06480503, 0
1114, 233481009, 0.4045078, 0.5699003, -0.4027035, 0.59111506, 1.586942E-4, 0.0077183493, 0.06427097, 0
1115, 233497676, 0.40451232, 0.5698946, -0.40269896, 0.5911205, 0.0022251832, -0.009624915, 0.074157715, 0
1116, 233514343, 0.40449017, 0.5699168, -0.40269676, 0.5911158, 0.0028703534, -0.012226829, 0.08287907, 0
1117, 233531010, 0.40449473, 0.56990695, -0.40271175, 0.59111196, -0.007625815, -0.003331684, 0.073945045, 0
1118, 233547677, 0.4044915, 0.5699177, -0.4027244, 0.5910952, -0.0027988292, 0.0012950341, 0.0809145, 0
1119, 233564344, 0.4044785, 0.5699204, -0.40271422, 0.59110844, 8.6678326E-4, -0.009660454, 0.08414841, 0
1120, 233581011, 0.40448222, 0.56992203, -0.40271807, 0.5911017, 7.146827E-4, 0.00981289, 0.071847916, 0
1121, 233597678, 0.40447187, 0.5699271, -0.40271318, 0.59110725, -0.0036927692, -0.013470008, 0.07172394, 0
1122, 233614345, 0.4044755, 0.5699275, -0.40272063, 0.5910994, -0.0037508826, -0.012103674, 0.08558273, 0
1123, 233631012, 0.4044807, 0.5699267, -0.40271622, 0.5910995, -0.00883245, 0.00202838, 0.069070816, 0
1124, 233647679, 0.40447846, 0.56993234, -0.402717, 0.59109503, -0.014421056, 0.0028674477, 0.06868076, 0
1125, 233664346, 0.404509, 0.56990784, -0.40274265, 0.59108025, -0.0063067535, -0.0044619893, 0.08025551, 0
1126, 233681013, 0.40449494, 0.5699105, -0.4027252, 0.5910993, 0.0039174, -0.0073432946, 0.06803131, 0
1127, 233697680, 0.4045146, 0.5698923, -0.40273902, 0.59109396, -0.017616173, 0.008720358, 0.06802559, 0
1128, 233714347, 0.40451306, 0.5698925, -0.4027455, 0.5910903, -0.0016759002, -0.006753891, 0.06557655, 0
1129, 233731014, 0.4044936, 0.5699063, -0.4027367, 0.5910963, -0.007113188, -0.008470694, 0.07226467, 0
1130, 233747681, 0.4044423, 0.5699408, -0.40269363, 0.59112775, -0.004128508, -0.0065218844, 0.07668114, 0
1131, 233764348, 0.40444794, 0.569933, -0.40270793, 0.5911215, -0.0069363895, 0.0036121928, 0.058307648, 0
1132, 233781015, 0.40443653, 0.5699493, -0.40268853, 0.5911267, -0.001827442, -0.013341041, 0.064510345, 0
1133, 233797682, 0.40443793, 0.56994545, -0.40268895, 0.59112924, -0.0046581216, -0.009366981, 0.07253456, 0
1134, 233814349, 0.40443584, 0.56993973, -0.40269542, 0.59113187, 0.012490127, -0.014847072, 0.054263115, 0
1135, 233831016, 0.40441835, 0.56994915, -0.40268302, 0.5911432, -7.1144174E-4, 0.0021086212, 0.07286739, 0
1136, 233847683, 0.404441, 0.5699441, -0.4027148, 0.59111077, 0.0048733647, -0.00871924, 0.073078156, 0
1137, 233864350, 0.40446323, 0.5699224, -0.40273708, 0.59110135, 0.0061872858, -0.006227965, 0.071702, 0
