DeviceTag:,Xsens DOT,,,,,,,,,,,,,,,,,
FirmwareVersion:,1.0.0,,,,,,,,,,,,,,,,,
AppVersion:,2020.1.1,,,,,,,,,,,,,,,,,
Measurement Mode:,Sensor fusion Mode - Extended (Quaternion),,,,,,,,,,,,,,,,,
StartTime:,2020-06-15 13:38:29.109 +0200,,,,,,,,,,,,,,,,,
© Xsens Technologies B. V. 2005-2020,,,,,,,,,,,,,,,,,,,
PacketCounter,SampleTimeFine,Quat_W,Quat_X,Quat_Y,Quat_Z,FreeAcc_X,FreeAcc_Y,FreeAcc_Z,Status
1, 214893807, 0.8694016, 0.3267118, 0.31408265, 0.19685632, -1.3691137, 0.4969178, -0.079304695, 0
2, 214910474, 0.8622359, 0.33501723, 0.32702443, 0.19330713, -1.0336466, 0.4131856, -0.06804752, 0
3, 214927141, 0.8558521, 0.34217352, 0.33791852, 0.19038273, -0.7621014, 0.3189217, -0.055773735, 0
4, 214943808, 0.85114497, 0.34732062, 0.34559667, 0.1883712, -0.566296, 0.18599676, -0.027129173, 0
5, 214960475, 0.84792584, 0.35067365, 0.35084516, 0.18696919, -0.44111466, 0.11869186, 0.0041646957, 0
6, 214977142, 0.8457307, 0.35286215, 0.3544707, 0.18595271, -0.36839896, 0.113132425, 0.023973465, 0
7, 214993809, 0.84417385, 0.35441297, 0.35702485, 0.18519025, -0.2932812, 0.0906725, 0.013821602, 0
8, 215010476, 0.8430406, 0.3555273, 0.35888743, 0.18461542, -0.24590382, 0.08521007, 0.0030117035, 0
9, 215027143, 0.84218484, 0.3563349, 0.36031222, 0.18418798, -0.21959992, 0.08008961, -0.014544487, 0
10, 215043810, 0.84151113, 0.3569738, 0.36142442, 0.1838509, -0.18920194, 0.09440226, 0.0061540604, 0
11, 215060477, 0.8409829, 0.35752815, 0.36223504, 0.18359518, -0.17474958, 0.093029894, 0.021224976, 0
12, 215077144, 0.84054655, 0.3580113, 0.36286622, 0.18340532, -0.17292683, 0.06882545, 0.0067272186, 0
13, 215093811, 0.84015447, 0.35844633, 0.36342818, 0.18323956, -0.14018933, 0.037976414, 0.007890701, 0
14, 215110478, 0.8398469, 0.35876292, 0.36388037, 0.18313242, -0.11967889, 0.040168855, -0.008947372, 0
15, 215127145, 0.83960223, 0.35902053, 0.36423936, 0.18303603, -0.10250326, 0.036623046, -0.002204895, 0
16, 215143812, 0.8393892, 0.35924384, 0.3645533, 0.18294977, -0.09550038, 0.045996957, 0.0024251938, 0
17, 215160479, 0.83921385, 0.35940877, 0.36482078, 0.182897, -0.08121343, 0.027887711, -0.0035381317, 0
18, 215177146, 0.83903235, 0.35945523, 0.36511493, 0.18305194, -0.060960922, 0.012963975, 0.0075979233, 0
19, 215193813, 0.838637, 0.35907382, 0.3658144, 0.18421149, -0.041960534, 0.0031057126, -0.0102415085, 0
20, 215210480, 0.8385262, 0.35915306, 0.36599407, 0.18420458, -0.04655261, -0.00233504, -0.02227211, 0
21, 215227147, 0.8384263, 0.3591911, 0.3661708, 0.18423408, -0.027507069, -0.0037588174, 0.0018281937, 0
22, 215243814, 0.8383106, 0.35909763, 0.36642447, 0.1844381, -0.01989623, 0.016415462, 0.009547234, 0
23, 215260481, 0.83826864, 0.35909057, 0.3665616, 0.18436997, -0.056834202, 0.041589502, 0.0076112747, 0
24, 215277148, 0.83823115, 0.35909748, 0.36666209, 0.18432741, -0.08747962, 0.03113759, 0.028169632, 0
25, 215293815, 0.8382115, 0.3591823, 0.36669075, 0.1841942, -0.112133995, 0.008668726, 0.03405094, 0
26, 215310482, 0.83818346, 0.35932106, 0.36670047, 0.184032, -0.08929946, 0.002787877, 0.006999016, 0
27, 215327149, 0.8381392, 0.35946897, 0.36672783, 0.1838906, -0.06250317, 0.0012112167, 0.0055685043, 0
28, 215343816, 0.8379615, 0.35930791, 0.36705273, 0.18436554, -0.026143864, 0.025945831, -0.0087509155, 0
29, 215360483, 0.8378799, 0.35924292, 0.3672337, 0.18450285, -0.010376813, 0.051995594, 0.0045776367, 0
30, 215377150, 0.8379184, 0.3594035, 0.3671892, 0.1841031, -0.032148987, 0.030886361, 0.021899223, 0
31, 215393817, 0.83782303, 0.35934204, 0.36737522, 0.18428652, -0.043402415, 0.013399378, 0.024263382, 0
32, 215410484, 0.83776367, 0.3593275, 0.36747107, 0.1843932, -0.068110205, -0.005224392, 0.041545868, 0
33, 215427151, 0.83768797, 0.359272, 0.36757395, 0.18464048, -0.058835316, -0.015782474, 0.023799896, 0
34, 215443818, 0.8377009, 0.35941827, 0.36749953, 0.18444481, -0.019699091, 0.008765284, 0.0070314407, 0
35, 215460485, 0.8376967, 0.3595208, 0.36747456, 0.18431415, -0.009860721, 0.016374335, 0.005125046, 0
36, 215477152, 0.83761674, 0.3594111, 0.36765364, 0.18453377, -0.022025414, 0.036516875, 0.019052505, 0
37, 215493819, 0.83764976, 0.3595581, 0.36760017, 0.18420373, -0.025433538, 0.030933522, 0.019888878, 0
38, 215510486, 0.83763224, 0.35956547, 0.367642, 0.18418565, -0.0366188, -0.008083346, -0.0022602081, 0
39, 215527153, 0.83765566, 0.35967943, 0.3675811, 0.18397819, -0.0204568, -0.009731977, -0.006749153, 0
40, 215543820, 0.83770925, 0.35983536, 0.3674489, 0.18369278, -0.03123057, -0.004199585, 0.024717331, 0
41, 215560487, 0.8377178, 0.35986036, 0.3674162, 0.18367039, -0.047952916, 0.017816888, 0.0028715134, 0
42, 215577154, 0.8376722, 0.35978726, 0.36749718, 0.18385966, -0.015841257, 0.01710187, 0.0055360794, 0
43, 215593821, 0.83765984, 0.3598107, 0.3675336, 0.18379727, -0.01474582, 0.024413649, -0.011530876, 0
44, 215610488, 0.8376235, 0.3597713, 0.36763605, 0.18383536, -0.016083099, 0.02877774, -0.0038547516, 0
45, 215627155, 0.8375934, 0.3596988, 0.36773396, 0.1839178, -0.027515562, 0.009950574, 0.018033028, 0
46, 215643822, 0.8376573, 0.35979804, 0.36763418, 0.18363209, -0.0465164, 0.015570359, 0.023705482, 0
47, 215660489, 0.83765435, 0.35987383, 0.36760464, 0.1835562, -0.027348375, -0.014896021, 0.006504059, 0
48, 215677156, 0.8376227, 0.35992742, 0.3676202, 0.18356447, -0.011962861, -0.011090266, 0.0038785934, 0
49, 215693823, 0.8376864, 0.36020255, 0.36745602, 0.18306185, 0.034051307, -0.0078108837, 0.023627281, 0
50, 215710490, 0.83767474, 0.36023673, 0.36749202, 0.18297552, 0.024974667, 0.026458569, 0.0022649765, 0
51, 215727157, 0.83776677, 0.36040092, 0.36735564, 0.18250385, -0.003366105, 0.0024917223, 0.0015544891, 0
52, 215743824, 0.8376907, 0.36028916, 0.3675288, 0.18272582, -0.028029643, -0.021625549, 0.003868103, 0
53, 215760491, 0.8378087, 0.36053, 0.36733535, 0.18209721, -0.0021305254, -0.046270758, 0.019839287, 0
54, 215777158, 0.8377985, 0.36051795, 0.36737177, 0.18209451, -0.04308838, 0.014187932, 0.020338058, 0
55, 215793825, 0.8377883, 0.36046946, 0.36741963, 0.18214084, -0.014284713, 0.02993956, 0.016356468, 0
56, 215810492, 0.83776927, 0.36040598, 0.3674817, 0.18222928, -0.02598204, 0.038203057, 0.0075883865, 0
57, 215827159, 0.83770895, 0.3603672, 0.3676146, 0.18231554, -0.026799874, 0.028176267, -0.003071785, 0
58, 215843826, 0.83776706, 0.36063874, 0.3674855, 0.18177073, -0.020597389, 0.01986829, 0.033457756, 0
59, 215860493, 0.8377497, 0.36075398, 0.36748618, 0.18162012, -0.017541297, -0.008634529, 0.007624626, 0
60, 215877160, 0.83768934, 0.36075497, 0.36756438, 0.1817386, -0.0012590485, -0.0059814304, -0.00898838, 0
61, 215893827, 0.83776605, 0.36091518, 0.36741307, 0.18137212, -0.017076613, -0.015714973, -0.007349968, 0
62, 215910494, 0.8377604, 0.3608811, 0.36745185, 0.1813879, -0.012054948, 0.007414595, -6.456375E-4, 0
63, 215927161, 0.83767194, 0.3607404, 0.36764234, 0.18169017, 0.00812939, 0.010642793, 0.0012111664, 0
64, 215943828, 0.8377073, 0.36086833, 0.3675781, 0.18140271, -4.552959E-4, 0.0124051925, 0.015899658, 0
65, 215960495, 0.837704, 0.3609682, 0.36757362, 0.18122816, 0.001457081, 0.008575745, 0.025473595, 0
66, 215977162, 0.8376451, 0.3609799, 0.36766943, 0.18128277, 0.0010923079, -0.012773095, 0.021771431, 0
67, 215993829, 0.8376237, 0.36098728, 0.3677095, 0.18128604, 0.028180737, -0.011242255, -0.004709244, 0
68, 216010496, 0.83764756, 0.3609948, 0.36769095, 0.18119784, -0.0012226158, -5.674994E-4, -0.0067214966, 0
69, 216027163, 0.83771896, 0.36110106, 0.36757666, 0.18088752, -0.031072548, 0.018408975, 0.010467529, 0
70, 216043830, 0.83776075, 0.3611487, 0.36752427, 0.18070532, -0.043294683, 0.01282115, 0.0031661987, 0
71, 216060497, 0.8378305, 0.36128673, 0.36739585, 0.18036713, 0.012616636, -0.020096274, 0.015457153, 0
72, 216077164, 0.8377943, 0.36125088, 0.3674575, 0.18048148, 0.010450125, -0.016014032, -0.0108680725, 0
73, 216093831, 0.8378303, 0.361438, 0.36736956, 0.18011889, 0.023317542, 0.010231306, 0.011271477, 0
74, 216110498, 0.8378825, 0.36157408, 0.3673017, 0.17974018, 0.015159096, 0.015939603, 0.011051178, 0
75, 216127165, 0.8378546, 0.36151883, 0.3673983, 0.17978391, -0.003237138, 0.029785784, 0.037774086, 0
76, 216143832, 0.83758503, 0.3609972, 0.36795437, 0.18094733, -0.03096772, 0.039364878, 0.010498047, 0
77, 216160499, 0.83756, 0.36099267, 0.36799473, 0.18099023, -0.03549587, 0.017528333, 0.008415222, 0
78, 216177166, 0.8374694, 0.36089015, 0.36814362, 0.1813113, -0.02176301, -0.008016963, -9.460449E-4, 0
79, 216193833, 0.8374408, 0.36092058, 0.36816522, 0.18133903, -0.0112970155, 0.008358044, 0.019283295, 0
80, 216210500, 0.83742297, 0.36095154, 0.3681846, 0.18131976, 6.5310486E-4, 0.0047798245, 0.012782097, 0
81, 216227167, 0.8374373, 0.3611029, 0.3681438, 0.18103494, 0.028954092, 0.022995684, -0.0054512024, 0
82, 216243834, 0.8373933, 0.3611519, 0.36823663, 0.18095173, 0.047740802, -0.0021569, 0.024394989, 0
83, 216260501, 0.837272, 0.36105216, 0.36848938, 0.18119729, 0.012130272, -0.014301476, 0.014493942, 0
84, 216277168, 0.8372481, 0.36106455, 0.36855546, 0.18114877, -0.016388416, -0.014536835, 0.018081665, 0
85, 216293835, 0.8372875, 0.3611344, 0.36848474, 0.1809715, -0.022056706, -0.004996185, 0.030585289, 0
86, 216310502, 0.83732206, 0.36117813, 0.36841848, 0.18085878, -0.017050015, 0.006510262, -4.968643E-4, 0
87, 216327169, 0.8373733, 0.3613523, 0.3682816, 0.18055226, 0.010932466, 0.022564527, -0.020915985, 0
88, 216343836, 0.83736837, 0.36145777, 0.36827585, 0.18037578, 0.00214036, -0.004262839, -0.0073242188, 0
89, 216360503, 0.83734775, 0.36148942, 0.36834252, 0.1802721, 0.0048457608, 9.993265E-4, -0.0032234192, 0
90, 216377170, 0.8372881, 0.3614158, 0.36850634, 0.18036215, -0.002370802, 0.023052456, 0.031428337, 0
91, 216393837, 0.8372078, 0.36120403, 0.36872956, 0.18070273, -0.016236205, 0.029532766, 0.010820389, 0
92, 216410504, 0.83722764, 0.3612159, 0.36872748, 0.18059115, -0.030968614, 0.023043515, 0.021298409, 0
93, 216427171, 0.8372258, 0.36124417, 0.36871663, 0.18056566, -0.041934382, 0.01362915, 0.01249218, 0
94, 216443838, 0.83718973, 0.3613024, 0.36872342, 0.1806018, -0.017798113, -0.009780927, 0.027980804, 0
95, 216460505, 0.83717304, 0.36142343, 0.368695, 0.18049479, 0.024351513, -0.014831873, 0.0058498383, 0
96, 216477172, 0.83714724, 0.3614249, 0.36874866, 0.18050182, 0.042014625, 0.044763163, -0.030920029, 0
97, 216493839, 0.83712006, 0.36138895, 0.3688465, 0.18049991, 0.01976145, 0.032705758, -0.02957344, 0
98, 216510506, 0.83708316, 0.36136878, 0.36895373, 0.18049273, 0.0042791557, -0.038462333, 0.007824898, 0
99, 216527173, 0.8371485, 0.36155078, 0.3688556, 0.18002558, -0.0103904465, -0.02504865, 0.050949097, 0
100, 216543840, 0.8371457, 0.3615895, 0.3688564, 0.17995822, -0.015932003, 0.025387496, 0.060652733, 0
101, 216560507, 0.83715457, 0.3616739, 0.36882603, 0.17981003, 0.01942797, 0.046458956, 0.0136117935, 0
102, 216577174, 0.837178, 0.36184686, 0.3687598, 0.17948905, -8.9986314E-4, 0.06051278, -0.01604271, 0
103, 216593841, 0.8371678, 0.36201733, 0.36876532, 0.17918079, 0.008908779, 0.030468391, 0.01692295, 0
104, 216610508, 0.837078, 0.36207375, 0.36890543, 0.17919806, -0.01231847, -0.023019152, 0.022696495, 0
105, 216627175, 0.837105, 0.36226732, 0.36881602, 0.17886402, -0.0018084433, -0.030168885, 0.0297575, 0
106, 216643842, 0.83720124, 0.36240038, 0.3686229, 0.17854233, 0.0032304327, -0.002674109, -0.020992279, 0
107, 216660509, 0.83723587, 0.3623466, 0.36858174, 0.17857401, -0.014777112, 0.043343186, -0.005092621, 0
108, 216677176, 0.8372899, 0.36240962, 0.3684877, 0.1783868, -0.0036765647, 0.03136781, -0.0071983337, 0
109, 216693843, 0.83725333, 0.36239868, 0.36852765, 0.17849782, -0.0046557747, 0.0041437065, 0.020347595, 0
110, 216710510, 0.8372387, 0.36245137, 0.36852878, 0.17845695, -0.017680544, -0.012495045, 0.010350227, 0
111, 216727177, 0.83715653, 0.36227384, 0.36868617, 0.17887737, 0.0075645726, 0.012471576, 0.03188896, 0
112, 216743844, 0.83717394, 0.3623019, 0.36862612, 0.1788632, 0.011239796, 0.012764601, 0.0024690628, 0
113, 216760511, 0.8371631, 0.36223528, 0.36864984, 0.17899992, 0.00660749, 0.029012876, -0.03174591, 0
114, 216777178, 0.83720654, 0.36229718, 0.36857253, 0.17883083, -0.019012235, 0.026787804, 0.018393517, 0
115, 216793845, 0.83717674, 0.36217114, 0.3686547, 0.17905585, -0.005498195, 0.02690202, 0.007393837, 0
116, 216810512, 0.8371905, 0.36219344, 0.3686123, 0.179034, 5.2167923E-4, -0.011524775, 0.031300545, 0
117, 216827179, 0.837192, 0.36218283, 0.36859825, 0.17907724, -0.0017235084, 0.0050002085, 0.030838013, 0
118, 216843846, 0.8372118, 0.3621897, 0.3685478, 0.17907412, 0.009608598, 0.018408304, 0.008263588, 0
119, 216860513, 0.8371423, 0.36202607, 0.36868536, 0.17944705, 0.0057492005, 0.011092277, 0.008161545, 0
120, 216877180, 0.8371307, 0.3620206, 0.3686901, 0.17950207, 0.012930225, 0.021233283, 0.011321068, 0
121, 216893847, 0.8370088, 0.36180168, 0.36891127, 0.18005717, -0.0034347235, -0.017430881, 0.02186966, 0
122, 216910514, 0.83701503, 0.36184847, 0.3688607, 0.1800373, 0.012091381, -0.0051323045, 0.025582314, 0
123, 216927181, 0.837052, 0.36189947, 0.3687573, 0.17997457, 0.0092664, -0.0059917117, -0.0032863617, 0
124, 216943848, 0.83703214, 0.36185527, 0.368761, 0.18014826, 0.029132456, -0.0036352146, -0.011378288, 0
125, 216960515, 0.8370405, 0.36184403, 0.36872876, 0.18019807, 0.01880392, 0.007017636, -0.0036916733, 0
126, 216977182, 0.8370503, 0.36180714, 0.36872342, 0.1802376, 0.029421235, 0.014884845, 0.010293007, 0
127, 216993849, 0.83701783, 0.3616673, 0.36881208, 0.18048725, 0.01493983, 0.008240699, 0.021364212, 0
128, 217010516, 0.83699566, 0.36155513, 0.3688607, 0.18071586, 0.0022246244, 0.0055466974, 0.02331829, 0
129, 217027183, 0.8370039, 0.36149228, 0.36886007, 0.1808045, 0.02685687, 0.010801263, 0.008321762, 0
130, 217043850, 0.8370245, 0.36151618, 0.3688334, 0.1807156, 0.018391093, 0.029723423, -4.825592E-4, 0
131, 217060517, 0.83701926, 0.36151826, 0.3688434, 0.1807148, 0.010694872, 0.014177427, 0.021720886, 0
132, 217077184, 0.8370358, 0.36151934, 0.36883163, 0.18066029, -0.004054078, -0.010879046, -0.0013790131, 0
133, 217093851, 0.8370355, 0.36146766, 0.3688735, 0.18067952, 0.015511129, 0.00559967, 0.0046024323, 0
134, 217110518, 0.83702683, 0.36144575, 0.36891478, 0.18067907, 0.006937619, 0.024513783, 0.018204689, 0
135, 217127185, 0.8370614, 0.36143252, 0.3688803, 0.18061543, 0.013394461, 0.04022965, 0.024366379, 0
136, 217143852, 0.8370733, 0.3614437, 0.36885723, 0.18058556, 0.002520332, 0.01842909, 0.021323204, 0
137, 217160519, 0.8370743, 0.36152253, 0.36882147, 0.18049635, 0.017538838, -0.0045270314, 0.012949944, 0
138, 217177186, 0.83708286, 0.36170107, 0.3687651, 0.18021421, 0.013459726, -0.016568568, -0.009092331, 0
139, 217193853, 0.8370793, 0.36170858, 0.3688084, 0.18012667, 0.03683717, -0.0027174705, -0.0017185211, 0
140, 217210520, 0.83706915, 0.36161354, 0.36889642, 0.18018417, 0.031177823, 0.022008203, -0.0065574646, 0
141, 217227187, 0.8370313, 0.36151624, 0.36901927, 0.18030345, 0.022130912, -0.031472635, 0.0015640259, 0
142, 217243854, 0.837054, 0.36154124, 0.36903018, 0.1801258, 0.025769033, -0.03185663, -0.0055379868, 0
143, 217260521, 0.83703935, 0.36146143, 0.3691214, 0.18016694, 0.015600981, 0.012234205, 0.04808712, 0
144, 217277188, 0.837061, 0.3613887, 0.36914042, 0.18017343, 0.016526325, 0.041343413, 0.05081749, 0
145, 217293855, 0.8370713, 0.36136597, 0.36914617, 0.1801595, -8.4622006E-4, 0.04959663, 0.023531914, 0
146, 217310522, 0.8370702, 0.36136281, 0.36918652, 0.18008842, -0.004200032, 0.024228357, 0.0022392273, 0
147, 217327189, 0.83703226, 0.36140236, 0.36926225, 0.18003047, -0.005110624, -0.023079054, 0.021368027, 0
148, 217343856, 0.8370042, 0.36141986, 0.36929274, 0.18006316, -2.9950736E-5, -0.025439797, 0.023245811, 0
149, 217360523, 0.8370249, 0.36141822, 0.36925697, 0.18004273, 0.008340162, -0.0036729884, 6.313324E-4, 0
150, 217377190, 0.83705556, 0.3613933, 0.36923784, 0.17998938, 0.02530882, 0.0140556125, -0.017791748, 0
151, 217393857, 0.83706194, 0.3613466, 0.3692658, 0.17999652, 0.0049564, 0.025182981, -0.0013179779, 0
152, 217410524, 0.8371116, 0.36148402, 0.36916184, 0.17970257, -0.01084239, 0.00360437, 0.020317078, 0
153, 217427191, 0.837115, 0.361514, 0.36912197, 0.17970873, -0.026934205, -0.022869175, 0.041110992, 0
154, 217443858, 0.83708495, 0.36140892, 0.36914742, 0.18000712, -0.0082056075, -0.021584423, 0.012717247, 0
155, 217460525, 0.83709276, 0.36139962, 0.36911026, 0.18006563, 0.034150768, 0.008721028, 0.0012426376, 0
156, 217477192, 0.8370839, 0.36135098, 0.36911547, 0.18019384, 0.048849873, 0.023273064, -0.0060806274, 0
157, 217493859, 0.83706325, 0.36133698, 0.36913958, 0.1802684, 0.03477884, -0.0057764687, -0.0021562576, 0
158, 217510526, 0.83707964, 0.3613318, 0.3690967, 0.18029062, 0.019792072, -0.018646345, 0.009435654, 0
159, 217527193, 0.83711535, 0.3612609, 0.36904058, 0.18038176, -0.006316029, -0.009625586, 0.019358635, 0
160, 217543860, 0.8371847, 0.36126405, 0.3689113, 0.18031769, -0.011551596, -0.004818045, 0.029981613, 0
161, 217560527, 0.83721864, 0.36129907, 0.3688124, 0.18029252, 0.0145214135, 0.012750297, 0.0140686035, 0
162, 217577194, 0.83725363, 0.36138982, 0.36869183, 0.18019466, 0.016578402, 0.017858686, 0.017355919, 0
163, 217593861, 0.83726025, 0.36137286, 0.36864805, 0.18028729, 0.006987462, 0.020708252, 0.007925034, 0
164, 217610528, 0.8373228, 0.36140448, 0.36850482, 0.18022622, -0.003866774, 0.014075952, 1.5258789E-4, 0
165, 217627195, 0.8373118, 0.36135867, 0.36847836, 0.18042363, 0.01731063, -0.009610834, -0.013594627, 0
166, 217643862, 0.8373086, 0.36134636, 0.36845297, 0.18051523, 0.018694848, 5.896272E-4, -2.3078918E-4, 0
167, 217660529, 0.83734006, 0.3613706, 0.36836627, 0.1804971, -0.0011586911, 0.03156517, 0.031873703, 0
168, 217677196, 0.837395, 0.36145306, 0.36818582, 0.1804451, 0.0063741426, 0.0026430406, 0.021769524, 0
169, 217693863, 0.8374164, 0.36144918, 0.3680723, 0.18058558, 0.03401666, 0.0056032464, -0.023198128, 0
170, 217710530, 0.837497, 0.36147612, 0.36793634, 0.18043517, 0.046118546, 0.029861778, -0.0206213, 0
171, 217727197, 0.8374913, 0.36137128, 0.36797997, 0.18058269, 0.013219451, 0.024571227, -0.005730629, 0
172, 217743864, 0.8375644, 0.3614712, 0.36785284, 0.18030171, 0.012055842, 0.018220106, 0.031902313, 0
173, 217760531, 0.8375277, 0.3614022, 0.36791405, 0.1804857, 0.015742017, 0.01971496, 0.037979126, 0
174, 217777198, 0.83748454, 0.3614481, 0.36798117, 0.18045719, 0.058175728, -0.003700257, -0.0042028427, 0
175, 217793865, 0.83742493, 0.36143088, 0.3681198, 0.18048623, 0.06677561, 0.018913219, -0.006922722, 0
176, 217810532, 0.8374172, 0.3614298, 0.36816192, 0.18043765, 0.042053517, -0.015246489, 0.01873684, 0
177, 217827199, 0.8374056, 0.36137092, 0.36820832, 0.18051496, 0.017067896, -0.02791118, 0.015246391, 0
178, 217843866, 0.83746666, 0.36140576, 0.36812449, 0.18033312, -8.345974E-4, -0.018575268, 0.0057115555, 0
179, 217860533, 0.8375127, 0.36142156, 0.36805835, 0.18022282, 7.0138363E-4, 0.009017854, 0.019083023, 0
180, 217877200, 0.83754927, 0.36147022, 0.36797583, 0.18012345, 0.004986127, 0.020232392, 0.011045456, 0
181, 217893867, 0.8375331, 0.3615345, 0.3679699, 0.18008114, 0.026473098, 0.0057588113, 0.014767647, 0
182, 217910534, 0.83752763, 0.36165014, 0.36795226, 0.17991021, 0.0282203, -0.0011014718, -0.00855732, 0
183, 217927201, 0.8374561, 0.36154836, 0.36812493, 0.18009444, 0.034639142, -0.005004455, -0.015566826, 0
184, 217943868, 0.8374573, 0.36153352, 0.36816424, 0.18003811, 0.043161917, -0.026535906, -0.027281761, 0
185, 217960535, 0.837464, 0.36150515, 0.36821043, 0.17996997, 0.055888742, -0.046391007, -0.017133713, 0
186, 217977202, 0.83743894, 0.3614027, 0.36833122, 0.18004526, 0.054832198, -0.014980509, 0.023245811, 0
187, 217993869, 0.8374272, 0.36122274, 0.36846212, 0.18019384, 0.031449836, 0.0552077, 0.046915054, 0
188, 218010536, 0.8374724, 0.36116618, 0.36845782, 0.18010533, -0.017477596, 0.07157645, 0.035452843, 0
189, 218027203, 0.83747363, 0.36109316, 0.36852276, 0.18011346, -0.027066972, 0.07723714, 0.007119179, 0
190, 218043870, 0.83743757, 0.3611441, 0.36859033, 0.18004014, -0.03388635, 0.0076385555, -0.0076913834, 0
191, 218060537, 0.83742553, 0.36129665, 0.36859414, 0.17978236, -0.024377218, -0.021109905, 0.0061187744, 0
192, 218077204, 0.83737224, 0.36131087, 0.36868763, 0.17981036, -0.00637526, -0.0054691387, 3.4332275E-4, 0
193, 218093871, 0.8373639, 0.36123148, 0.3687467, 0.17988755, 0.025934879, 0.021809053, 0.010721207, 0
194, 218110538, 0.8373548, 0.36119533, 0.36879906, 0.17989515, 0.020438248, 0.016862934, 0.009034157, 0
195, 218127205, 0.83731645, 0.36121893, 0.3688783, 0.17986347, 0.023132697, 0.012332328, 0.012104034, 0
196, 218143872, 0.8372694, 0.3612302, 0.3689601, 0.17989193, 0.044052616, -0.03017045, 0.016786575, 0
197, 218160539, 0.8372071, 0.36109024, 0.36909145, 0.1801932, 0.008562781, -0.021480042, 0.023479462, 0
198, 218177206, 0.8372413, 0.36104932, 0.36903018, 0.18024239, 0.012725486, -0.0026209129, 0.027310371, 0
199, 218193873, 0.8372972, 0.36108965, 0.36891124, 0.18014516, 0.03620597, -0.00674048, 5.903244E-4, 0
200, 218210540, 0.83734703, 0.3611569, 0.36884043, 0.17992336, 0.054407746, -0.008412804, -0.04140091, 0
201, 218227207, 0.83731544, 0.3611116, 0.36894438, 0.1799483, 0.060278762, -0.0072791465, -7.6675415E-4, 0
202, 218243874, 0.83731425, 0.36108613, 0.36899656, 0.17989781, 0.031643398, -0.020023184, 0.0084171295, 0
203, 218260541, 0.83736765, 0.36104405, 0.36896637, 0.17979585, 0.01168347, -0.0076631415, 0.03693199, 0
204, 218277208, 0.8374259, 0.3609961, 0.36889517, 0.17976722, 0.024547534, -0.015847962, 0.032683372, 0
205, 218293875, 0.83747286, 0.36099136, 0.36881047, 0.17973165, 0.006840614, 0.021007089, 0.0037574768, 0
206, 218310542, 0.83747625, 0.3609758, 0.36879212, 0.17978485, 0.0091937585, 0.046514165, -0.006152153, 0
207, 218327209, 0.83746433, 0.3609725, 0.36880964, 0.17981113, 0.002596103, 0.019864714, 9.698868E-4, 0
208, 218343876, 0.8374627, 0.36094955, 0.36882597, 0.17983073, -0.009172524, 0.010869659, -0.004011154, 0
209, 218360543, 0.83745205, 0.3609159, 0.36886784, 0.1798616, -0.0069575114, 0.019109687, 2.2888184E-4, 0
210, 218377210, 0.8374391, 0.36088404, 0.36889595, 0.17992873, 0.003208305, -0.0073142378, 0.02870369, 0
211, 218393877, 0.83746934, 0.36096922, 0.3688109, 0.17979121, 0.027507069, -8.877935E-4, 0.016320229, 0
212, 218410544, 0.83748585, 0.3610216, 0.368748, 0.17973821, 0.028667325, 0.01992238, 0.00729084, 0
213, 218427211, 0.8374497, 0.36091968, 0.36882284, 0.17995788, 0.049352333, 0.018746031, 0.0020246506, 0
214, 218443878, 0.83747214, 0.36090615, 0.36879036, 0.17994687, 0.024563627, 0.021431986, 8.983612E-4, 0
215, 218460545, 0.8374997, 0.36091048, 0.36875328, 0.179886, 0.008451025, 0.018384611, 0.008048058, 0
216, 218477212, 0.8374934, 0.36091825, 0.36875477, 0.17989652, 0.013896247, 2.6620392E-4, 0.00944519, 0
217, 218493879, 0.8374812, 0.36097267, 0.36875245, 0.17984943, 0.03688053, -0.010708058, 0.02600193, 0
218, 218510546, 0.8374571, 0.36097217, 0.36878145, 0.17990306, 0.013063215, -0.022826483, -0.003276825, 0
219, 218527213, 0.8374855, 0.3610579, 0.36871022, 0.17974435, 0.028832054, -0.034635343, 0.015680313, 0
220, 218543880, 0.837519, 0.36110198, 0.3686394, 0.1796449, 0.027433086, -0.0034821082, -5.38826E-4, 0
221, 218560547, 0.8375217, 0.36104846, 0.36864337, 0.17973213, 0.04708971, 4.362973E-4, 0.0040426254, 0
222, 218577214, 0.83758265, 0.36102998, 0.3685669, 0.17964193, 0.028472198, 0.018576609, 0.030787468, 0
223, 218593881, 0.83759093, 0.36094663, 0.3685552, 0.17979491, -0.016137188, 0.046526905, 0.034461975, 0
224, 218610548, 0.83759457, 0.36098635, 0.36849204, 0.1798275, 0.0076799053, -0.01645659, 0.0038204193, 0
225, 218627215, 0.83761144, 0.36108965, 0.36840492, 0.17972001, 0.047657434, -0.025111904, -0.0053710938, 0
226, 218643882, 0.8375832, 0.36103615, 0.36846843, 0.17982897, 0.06293029, 0.0053837565, -0.013245583, 0
227, 218660549, 0.8375198, 0.36082542, 0.36863145, 0.18021283, 0.051319245, 3.0777734E-4, 0.0028486252, 0
228, 218677216, 0.8375705, 0.36082548, 0.3685701, 0.18010259, 0.045512155, -0.04523947, -0.0013618469, 0
229, 218693883, 0.83764124, 0.36080235, 0.36849898, 0.17996523, 0.019231949, -0.005699804, 0.034845352, 0
230, 218710550, 0.83769, 0.36074555, 0.36844555, 0.17996146, 0.012517843, 0.027201973, 0.049212456, 0
231, 218727217, 0.83773607, 0.36079282, 0.3683498, 0.17984816, 0.01425141, 0.039377842, 0.015741348, 0
232, 218743884, 0.83772737, 0.360767, 0.36837003, 0.17989896, 0.02409492, 0.022142535, -0.010679245, 0
233, 218760551, 0.8377736, 0.36085582, 0.36830357, 0.17964147, 0.007792332, 0.02292997, 0.025668144, 0
234, 218777218, 0.83776814, 0.3609014, 0.36829564, 0.17959166, 0.0033466595, 0.0032465258, 0.04067707, 0
235, 218793885, 0.83774793, 0.360903, 0.3683079, 0.17965758, 0.024803456, 0.0037532295, 0.010190964, 0
236, 218810552, 0.83773756, 0.36093125, 0.36830348, 0.17965753, 0.022240434, -7.878832E-4, -0.0011339188, 0
237, 218827219, 0.8377265, 0.36090943, 0.36831886, 0.17972197, 0.014788511, 0.006343521, -0.009645462, 0
238, 218843886, 0.8377551, 0.36094743, 0.36826238, 0.17962812, 0.026091114, 0.0023936003, 0.012228966, 0
239, 218860553, 0.8377493, 0.36093947, 0.36824414, 0.1797082, 0.036499217, -0.008894251, 0.025595665, 0
240, 218877220, 0.8377557, 0.36089906, 0.3682117, 0.17982596, 0.044207063, -0.019074373, 0.010103226, 0
241, 218893887, 0.83776075, 0.3608665, 0.368197, 0.17989784, 0.05395804, -0.014845284, 0.0096206665, 0
242, 218910554, 0.83774215, 0.36083096, 0.3682399, 0.17996801, 0.05630783, 0.0145404115, -0.008615494, 0
243, 218927221, 0.8377342, 0.36081743, 0.36827016, 0.1799704, 0.06260575, -0.009667606, 6.008148E-4, 0
244, 218943888, 0.83773583, 0.36082873, 0.36828685, 0.17990609, 0.07300335, -0.017841028, -0.007736206, 0
245, 218960555, 0.83776087, 0.36081415, 0.3682943, 0.17980342, 0.09001336, -0.049631946, 0.01941204, 0
246, 218977222, 0.8377794, 0.3607044, 0.3683556, 0.17981161, 0.07396513, 0.004265968, 0.02603817, 0
247, 218993889, 0.83779436, 0.36057836, 0.36844206, 0.17981787, 0.05332058, 0.04606088, 0.029176712, 0
248, 219010556, 0.8378441, 0.36068878, 0.36841717, 0.17941524, 0.04453339, 0.0444498, 0.018795013, 0
249, 219027223, 0.8378041, 0.36072317, 0.36855012, 0.17925978, 0.0015891771, 0.04384743, 0.015814781, 0
250, 219043890, 0.83773077, 0.36074924, 0.3687028, 0.17923585, -0.010744045, -0.010752762, 0.027061462, 0
251, 219060557, 0.83769375, 0.36081582, 0.36879602, 0.1790832, 0.033800524, -0.05088116, -0.002617836, 0
252, 219077224, 0.8376569, 0.3607812, 0.36895055, 0.17900702, 0.06835093, -0.001036206, 0.009843826, 0
253, 219093891, 0.83764005, 0.36070982, 0.36909926, 0.17892341, 0.01974558, 0.109046385, 0.052449226, 0
254, 219110558, 0.837604, 0.36066458, 0.36922315, 0.17892729, -0.031699054, 0.104983814, 0.058318138, 0
255, 219127225, 0.83762527, 0.36086035, 0.36912113, 0.17864338, -0.066286564, 0.0020297212, 0.013818741, 0
256, 219143892, 0.8375998, 0.36100858, 0.36906305, 0.17858326, -0.07273156, -0.10318722, -0.040260315, 0
257, 219160559, 0.8375907, 0.36116108, 0.36899203, 0.17846453, 0.003901642, -0.12993121, -0.011013985, 0
258, 219177226, 0.837638, 0.36123273, 0.36890483, 0.17827757, 0.12100142, -0.06313548, 9.126663E-4, 0
259, 219193893, 0.8377153, 0.36112002, 0.3688475, 0.17826068, 0.13566744, 0.03376096, 0.038167953, 0
260, 219210560, 0.83782494, 0.36104366, 0.36875126, 0.1780996, 0.06987127, 0.059687346, 0.009336472, 0
261, 219227227, 0.8378453, 0.36095345, 0.3687813, 0.17812414, -0.03669546, 0.015484754, 0.0063943863, 0
262, 219243894, 0.83781147, 0.36089745, 0.3688468, 0.1782611, -0.08107173, -0.03231528, 0.03532982, 0
263, 219260561, 0.83778405, 0.36096492, 0.36879072, 0.17836922, -0.034509506, -0.09045793, 0.03170204, 0
264, 219277228, 0.8378236, 0.36106482, 0.36863512, 0.17830288, 0.08287346, -0.059934776, -0.012251854, 0
265, 219293895, 0.8377912, 0.360854, 0.36874875, 0.17864701, 0.11324798, 0.020160869, -0.014862061, 0
266, 219310562, 0.8377856, 0.36065856, 0.3688817, 0.1787935, 0.06890323, 0.11843326, 0.032517433, 0
267, 219327229, 0.8377318, 0.3604587, 0.36905012, 0.17910127, 0.0068904576, 0.08158446, 0.03513241, 0
268, 219343896, 0.8377044, 0.3604769, 0.36904582, 0.1792009, -0.029664416, -0.056900363, 0.0271101, 0
269, 219360563, 0.83777124, 0.3607543, 0.3688238, 0.17878692, -0.016667584, -0.08042019, -0.007089615, 0
270, 219377230, 0.8376093, 0.36048377, 0.36908495, 0.17955081, 0.041010156, -0.010730857, 0.018866539, 0
271, 219393897, 0.83767366, 0.36053133, 0.3689344, 0.17946443, 0.06566721, 0.04350389, 0.02631092, 0
272, 219410564, 0.8377267, 0.3605202, 0.36882532, 0.1794634, 0.057836212, 0.06649846, -0.015890121, 0
273, 219427231, 0.8376509, 0.36036518, 0.36897758, 0.17981544, 0.042284627, 0.024546416, -0.01504612, 0
274, 219443898, 0.8377185, 0.36061764, 0.36884308, 0.17926961, 0.021619514, -0.02804104, 0.002149582, 0
275, 219460565, 0.8377641, 0.36078438, 0.36874118, 0.17892998, 0.04261498, -0.054730278, 0.0386734, 0
276, 219477232, 0.8378074, 0.36086404, 0.36863956, 0.1787759, 0.053393222, -0.033800524, 0.035348892, 0
277, 219493899, 0.83780426, 0.3608189, 0.36863548, 0.17889005, 0.074270226, 0.015506435, 0.0050029755, 0
278, 219510566, 0.83784866, 0.3609129, 0.36856243, 0.17864306, 0.08643693, 0.052889872, -0.026587486, 0
279, 219527233, 0.8378313, 0.36087534, 0.36866176, 0.17859538, 0.07333482, 0.06789273, -0.009090424, 0
280, 219543900, 0.83780193, 0.36083403, 0.36880633, 0.17851804, 0.017649477, 0.010944088, 0.018875122, 0
281, 219560567, 0.8377618, 0.360812, 0.36893758, 0.1784792, -0.02288281, 0.0067726662, 0.05628681, 0
282, 219577234, 0.8377505, 0.36088267, 0.36897355, 0.17831561, -0.012802599, 0.019567888, 0.044029236, 0
283, 219593901, 0.8377671, 0.36101, 0.36893544, 0.17805833, 0.022770606, 0.017963065, 0.037758827, 0
284, 219610568, 0.83776605, 0.3611004, 0.36892393, 0.1779037, 0.0049876915, 0.035195913, 0.009727478, 0
285, 219627235, 0.837601, 0.3610139, 0.36922288, 0.17823613, 0.023582628, 0.032368924, 0.009259224, 0
286, 219643902, 0.83752984, 0.36125994, 0.36932254, 0.1778651, 0.026356425, 0.010051825, -9.6797943E-4, 0
287, 219660569, 0.8374371, 0.3614226, 0.36948246, 0.17763956, 0.041563574, 0.004874147, 0.011734009, 0
288, 219677236, 0.8372639, 0.36136246, 0.36979058, 0.17793699, 0.014378812, -0.013134962, 0.026082039, 0
289, 219693903, 0.837209, 0.36136776, 0.36988303, 0.1779915, 0.015478943, -0.012557629, 0.030461311, 0
290, 219710570, 0.83717054, 0.36145046, 0.3699115, 0.17794503, 0.027427498, -0.034186307, 0.012447357, 0
291, 219727237, 0.8371184, 0.36160904, 0.36994484, 0.17779945, 0.048169278, -0.053040296, 1.4591217E-4, 0
292, 219743904, 0.83700407, 0.36167404, 0.37012538, 0.17782967, 0.09641075, -0.02550797, -0.010817528, 0
293, 219760571, 0.83693665, 0.36182705, 0.370236, 0.17760569, 0.09913805, -0.031823773, -0.0016393661, 0
294, 219777238, 0.83689696, 0.36194074, 0.3703334, 0.17735761, 0.076694, -0.03599229, 0.019950867, 0
295, 219793905, 0.8368195, 0.36183283, 0.37055603, 0.17747782, 0.037817944, -0.030025166, 9.965897E-4, 0
296, 219810572, 0.8368204, 0.3618472, 0.37059498, 0.17736302, 0.014637193, -0.03491809, 0.012029648, 0
297, 219827239, 0.83678645, 0.36178824, 0.37067965, 0.17746735, -0.0238162, -0.016410992, 0.002521515, 0
298, 219843906, 0.83682674, 0.3619685, 0.37058553, 0.17710578, -0.032260742, -0.019701773, 0.00911808, 0
299, 219860573, 0.8367921, 0.36201742, 0.37063733, 0.17706016, 0.004847549, 0.013349982, 0.011282921, 0
300, 219877240, 0.83675677, 0.36211592, 0.37067854, 0.17694011, 0.044869557, 0.020001281, -0.01107502, 0
301, 219893907, 0.83672154, 0.36220086, 0.37074223, 0.17679866, 0.05032394, 0.010006005, -0.0039157867, 0
302, 219910574, 0.83662724, 0.36213744, 0.3709437, 0.17695229, 0.011613957, 0.0065889386, 0.02098465, 0
303, 219927241, 0.83662564, 0.36222467, 0.3709577, 0.17675185, -0.010665591, 0.009990359, 0.03633499, 0
304, 219943908, 0.8366259, 0.36228207, 0.37093955, 0.17667116, -0.011340377, 0.01563026, 0.051172256, 0
305, 219960575, 0.8366228, 0.3623863, 0.3708619, 0.1766352, -0.0021374545, 0.005221486, 0.041293144, 0
306, 219977242, 0.836602, 0.3625473, 0.37077698, 0.17658179, 0.01204489, -0.022128006, 0.0069932938, 0
307, 219993909, 0.83655053, 0.36266437, 0.37078813, 0.17656182, 0.034143616, -0.017678088, -0.02668953, 0
308, 220010576, 0.8365103, 0.36272132, 0.37084436, 0.17651722, 0.05021107, 0.004728193, -0.021726608, 0
309, 220027243, 0.8364774, 0.36269993, 0.37094024, 0.17651597, 0.04148289, 0.0077384654, 0.029685974, 0
310, 220043910, 0.8364177, 0.36270115, 0.37104452, 0.17657743, 0.027606979, 0.016203124, 0.04133606, 0
311, 220060577, 0.8363646, 0.3627778, 0.37107173, 0.17661321, -0.013247166, -0.0052952454, 0.055490494, 0
312, 220077244, 0.8362994, 0.3628669, 0.37104982, 0.17678504, 7.3982787E-4, -0.026323345, 0.031401634, 0
313, 220093911, 0.8362353, 0.36289763, 0.37103605, 0.17705452, 0.05742897, -0.057737198, 0.011359215, 0
314, 220110578, 0.83619153, 0.36294422, 0.37103507, 0.17716737, 0.09191054, 0.01977352, -0.017207146, 0
315, 220127245, 0.8361297, 0.36296332, 0.37111378, 0.17725526, 0.08879812, 0.05937063, -0.024913788, 0
316, 220143912, 0.83605754, 0.36294737, 0.3712474, 0.17734858, 0.055571802, 2.673215E-4, -0.046916008, 0
317, 220160579, 0.8359724, 0.36281735, 0.3714829, 0.1775229, 0.023475565, -0.0071016774, -0.028834343, 0
318, 220177246, 0.83587295, 0.36262915, 0.37174657, 0.17782338, -0.014626911, 0.013941173, 0.04855728, 0
319, 220193913, 0.83585453, 0.36260015, 0.37178925, 0.17787968, -0.035069406, 0.021370297, 0.10135555, 0
320, 220210580, 0.83588153, 0.36273023, 0.37166718, 0.17774248, -0.04920079, 0.019885948, 0.05909729, 0
321, 220227247, 0.8358975, 0.36283958, 0.37154177, 0.17770647, -0.026895091, 0.050274547, 0.0036506653, 0
322, 220243914, 0.83591807, 0.36302698, 0.37140262, 0.17751795, 0.015270182, 0.03197219, -0.021400452, 0
323, 220260581, 0.83586574, 0.36310494, 0.3714352, 0.1775367, 0.038422994, 0.00764459, -0.002714157, 0
324, 220277248, 0.83583575, 0.36319622, 0.37144825, 0.17746373, 0.03302292, 0.009634302, -9.174347E-4, 0
325, 220293915, 0.83585554, 0.3632868, 0.3714033, 0.17727949, 0.04054458, -0.022363365, -0.013082504, 0
326, 220310582, 0.8358546, 0.3633125, 0.3714066, 0.17722441, 0.024873639, -0.0037503238, 0.013464928, 0
327, 220327249, 0.8359225, 0.36353955, 0.37123078, 0.17680591, 0.014632052, -0.007134757, 0.002292633, 0
328, 220343916, 0.83593124, 0.36353108, 0.3712168, 0.17681104, 0.012974033, 0.032833606, 0.029571533, 0
329, 220360583, 0.8359352, 0.36349088, 0.37118477, 0.1769431, 0.0076595657, 0.01929252, 0.043735504, 0
330, 220377250, 0.8359522, 0.363565, 0.37108737, 0.17691422, -0.0067605963, 8.468906E-4, 0.025553703, 0
331, 220393917, 0.8358945, 0.36363888, 0.37111634, 0.17697445, 0.03825782, -0.0023482272, -0.0061903, 0
332, 220410584, 0.8358733, 0.36370367, 0.3711375, 0.17689693, 0.068637475, -0.022541057, -0.060468674, 0
333, 220427251, 0.83586353, 0.36365914, 0.37121052, 0.1768813, 0.08325299, -0.009584683, -0.013736725, 0
334, 220443918, 0.8358802, 0.3636048, 0.37124726, 0.17683665, 0.026133582, 0.008903638, 0.02329731, 0
335, 220460585, 0.8358846, 0.36359897, 0.37126502, 0.17679085, -0.016611706, 0.015086231, 0.067225456, 0
336, 220477252, 0.8359474, 0.36367267, 0.37115386, 0.17657563, -0.024952093, 0.00739135, 0.04915905, 0
337, 220493919, 0.83599585, 0.36375046, 0.37103158, 0.17644319, 0.0020569898, 0.0072547835, 0.016824722, 0
338, 220510586, 0.83599305, 0.36390522, 0.37094986, 0.17630906, 0.025522497, -0.015355117, -0.029066086, 0
339, 220527253, 0.8359568, 0.36398938, 0.37095547, 0.17629568, 0.040888567, -0.013157314, -0.01987648, 0
340, 220543920, 0.8359102, 0.36395916, 0.37105647, 0.17636684, 0.0449679, 0.017078402, 0.0018348694, 0
341, 220560587, 0.8359131, 0.3640328, 0.37107918, 0.17615242, 0.024612352, 0.018002851, 0.020224571, 0
342, 220577254, 0.8358941, 0.3640039, 0.37114906, 0.17615534, 0.035552416, -0.0033544824, 0.042528152, 0
343, 220593921, 0.8359653, 0.36409426, 0.37100643, 0.17593175, 0.04343907, -0.01549213, 0.052393913, 0
344, 220610588, 0.8359562, 0.36401325, 0.37097922, 0.17619947, -0.007051387, 0.005905883, 0.055808067, 0
345, 220627255, 0.8361269, 0.3643153, 0.37055928, 0.175648, 0.010878376, 0.018279783, 0.07675743, 0
346, 220643922, 0.83615786, 0.36440596, 0.37039435, 0.1756606, 0.02504664, 0.030569866, 0.13680077, 0
347, 220660589, 0.8362774, 0.36446193, 0.37007445, 0.17564926, 0.01937902, 0.031354845, 0.124279976, 0
348, 220677256, 0.83652383, 0.36451617, 0.36956984, 0.17542551, 0.068100825, 0.03599028, 0.06565189, 0
349, 220693923, 0.8367279, 0.36454892, 0.36912224, 0.1753266, 0.10678488, -0.04871085, 0.072732925, 0
350, 220710590, 0.83694446, 0.36452916, 0.36869326, 0.17523699, 0.14472665, -0.07388109, 0.20298195, 0
351, 220727257, 0.83754843, 0.36437646, 0.36767358, 0.17481068, 0.13107291, -0.09668142, 0.41825008, 0
352, 220743924, 0.8384845, 0.3636073, 0.36623922, 0.1749352, 0.12266212, -0.086494595, 0.48004723, 0
353, 220760591, 0.839726, 0.3623115, 0.3644428, 0.17542021, 0.13185275, -0.003963108, 0.46149063, 0
354, 220777258, 0.8413526, 0.3614329, 0.36183032, 0.17484629, 0.15356703, 0.047182467, 0.43050194, 0
355, 220793925, 0.8432033, 0.3599574, 0.35898972, 0.1748301, 0.11502223, 0.110386565, 0.37999344, 0
356, 220810592, 0.84524316, 0.3581789, 0.3559805, 0.1747852, 0.09042306, 0.14935337, 0.2234478, 0
357, 220827259, 0.84719115, 0.35635707, 0.353039, 0.17504388, 0.11637671, 0.13213035, 0.33487606, 0
358, 220843926, 0.84900165, 0.35496095, 0.35021743, 0.1747759, -0.088569246, 0.17633787, 0.14251614, 0
359, 220860593, 0.85055923, 0.353367, 0.3480427, 0.17477675, 0.09044251, 0.092793636, -0.06231785, 0
360, 220877260, 0.8519735, 0.35108915, 0.3465187, 0.17550595, 0.09582626, 0.12055618, -0.24415112, 0
361, 220893927, 0.8533004, 0.34875616, 0.34519583, 0.17631629, 0.06912429, 0.12772559, -0.120186806, 0
362, 220910594, 0.8547699, 0.34701094, 0.3434365, 0.17607735, -0.12728101, 0.22345552, 0.12932396, 0
363, 220927261, 0.8560667, 0.34555042, 0.34182405, 0.17578666, -0.16547938, 0.24260208, 0.14815712, 0
364, 220943928, 0.8573653, 0.34448397, 0.33998558, 0.17511523, -0.11020798, 0.17009045, 0.053219795, 0
365, 220960595, 0.8586125, 0.34296718, 0.3381902, 0.17545798, -0.15571074, 0.05850921, -0.06212902, 0
366, 220977262, 0.8600575, 0.34179273, 0.33588928, 0.1750923, -0.16089825, 0.11917376, 0.12591648, 0
367, 220993929, 0.86180544, 0.34028298, 0.33298492, 0.1749858, -0.26099473, -0.037858624, 0.18361759, 0
368, 221010596, 0.8638763, 0.33903846, 0.3291186, 0.17450456, -0.042942427, -0.029781537, 0.2957201, 0
369, 221027263, 0.86583906, 0.33781633, 0.3253999, 0.17412065, 0.12273566, 0.3976539, 0.58970356, 0
370, 221043930, 0.8678913, 0.33645725, 0.32149458, 0.17378926, 0.26104861, 0.30603504, 0.61782455, 0
371, 221060597, 0.87016076, 0.33433536, 0.31748772, 0.17390189, 0.28329977, 0.1775037, 0.5728369, 0
372, 221077264, 0.87256587, 0.33158624, 0.31354386, 0.17426994, 0.28438246, 0.12743032, 0.59176826, 0
373, 221093931, 0.8750886, 0.3284834, 0.30954194, 0.17464976, 0.25963065, 0.12279645, 0.50256443, 0
374, 221110598, 0.8777653, 0.3249588, 0.30537274, 0.17515041, 0.28234446, 0.03318765, 0.44925976, 0
375, 221127265, 0.88057214, 0.32113326, 0.30099604, 0.17569235, 0.21339251, 0.017896459, 0.3076973, 0
376, 221143932, 0.88353145, 0.3169198, 0.29647473, 0.17617337, 0.11550524, 0.010424421, 0.3336258, 0
377, 221160599, 0.88656265, 0.31269485, 0.29170504, 0.17645635, 0.030688552, -0.01253483, 0.3965187, 0
378, 221177266, 0.88951164, 0.30862105, 0.2866201, 0.17711863, -0.24812509, 0.012671843, 0.55702305, 0
379, 221193933, 0.8928594, 0.30411747, 0.28113237, 0.17685987, 0.23001339, -0.1104829, 0.04458809, 0
380, 221210600, 0.8960746, 0.29926726, 0.2761124, 0.17678064, 0.060933653, 0.10523571, 0.124097824, 0
381, 221227267, 0.89920586, 0.29384926, 0.27161533, 0.17693727, 0.026801886, 0.100439794, 0.052545547, 0
382, 221243934, 0.90221816, 0.2885791, 0.26731166, 0.17683049, 0.045187615, -0.07108852, 0.1542511, 0
383, 221260601, 0.90531886, 0.28314686, 0.262803, 0.17652269, -0.12022561, 0.060618054, 0.13133717, 0
384, 221277268, 0.9083991, 0.27769402, 0.25832456, 0.17597046, -0.15406145, -0.06250317, 0.13723946, 0
385, 221293935, 0.91142774, 0.27224916, 0.25379798, 0.17540367, -0.16244563, 0.02418075, 0.0692606, 0
386, 221310602, 0.91444963, 0.26681703, 0.24917345, 0.17465217, -0.09957167, 0.027683197, 0.081498146, 0
387, 221327269, 0.9173954, 0.26137412, 0.24465004, 0.17382704, -0.20950495, -0.011212528, 0.09193039, 0
388, 221343936, 0.92024153, 0.25581142, 0.24036801, 0.17302956, -0.20460242, 0.00640007, 0.03292942, 0
389, 221360603, 0.92297435, 0.2501996, 0.23632668, 0.1722449, -0.10860003, 0.082563005, -0.06749344, 0
390, 221377270, 0.925598, 0.24418902, 0.23286258, 0.1715086, -0.16686292, 0.039449144, -0.20989418, 0
391, 221393937, 0.9280433, 0.2382446, 0.22964703, 0.17098972, -0.17820442, -0.0073515647, -0.14365292, 0
392, 221410604, 0.93041754, 0.23267283, 0.22631606, 0.17019926, -0.09241456, -0.11078554, -0.17732906, 0
393, 221427271, 0.93270206, 0.22722898, 0.22341992, 0.1688722, -0.18675245, 0.005638114, -0.13540363, 0
394, 221443938, 0.93491095, 0.22223468, 0.22007003, 0.16769747, -0.11353721, 0.015441616, -0.12506676, 0
395, 221460605, 0.937055, 0.21750934, 0.21649696, 0.1665737, -0.08533501, 0.090239555, -0.1857462, 0
396, 221477272, 0.939195, 0.21234106, 0.21342829, 0.16514388, -0.011566795, -0.23389827, -0.35917854, 0
397, 221493939, 0.9411682, 0.2076346, 0.21005641, 0.164216, 0.16001807, 0.15377669, -0.30563736, 0
398, 221510606, 0.94319534, 0.20272301, 0.20695873, 0.16264711, -0.06658898, -0.112350576, -0.38527107, 0
399, 221527273, 0.94502735, 0.19838116, 0.20370601, 0.16146861, -0.09459415, -0.024041053, -0.42320728, 0
400, 221543940, 0.94666755, 0.19440092, 0.20081104, 0.16032341, -0.121844515, 0.040245295, -0.4623289, 0
401, 221560607, 0.94816524, 0.19050701, 0.19856516, 0.15893975, -0.10709601, -0.38320056, -0.77587795, 0
402, 221577274, 0.94948214, 0.18740366, 0.19594973, 0.15801036, 0.12557405, 0.008493269, -0.3913355, 0
403, 221593941, 0.95087445, 0.18427724, 0.19336025, 0.15649787, -0.024448741, -0.26971912, -0.35264206, 0
404, 221610608, 0.95211965, 0.18201344, 0.19013955, 0.15551904, 0.12207831, 0.02967861, -0.3942852, 0
405, 221627275, 0.95336473, 0.17962718, 0.18734659, 0.15404926, 0.1100827, -0.21929583, -0.38210106, 0
406, 221643942, 0.9545717, 0.1775319, 0.18400702, 0.15302552, 0.12961595, -0.14560059, -0.24367523, 0
407, 221660609, 0.95579696, 0.17546403, 0.18083566, 0.15153605, 0.1028449, -0.110765755, -0.13577461, 0
408, 221677276, 0.95696926, 0.17381, 0.17700443, 0.15056387, 0.16479197, -0.08185425, -0.12043762, 0
409, 221693943, 0.95811254, 0.17218219, 0.1734441, 0.14930186, 0.076988705, -0.114618, -0.16891766, 0
410, 221710610, 0.95908725, 0.17069459, 0.17013378, 0.14855881, 0.06707221, -0.02029073, -0.36210537, 0
411, 221727277, 0.96004343, 0.16908103, 0.16719784, 0.14755765, 0.1803621, 0.009752653, -0.10409355, 0
412, 221743944, 0.9609471, 0.16746199, 0.16427207, 0.14680614, 0.1032736, -0.25878787, -0.3637867, 0
413, 221760611, 0.9617288, 0.16627693, 0.16148938, 0.14612028, 0.17089666, -0.05645736, -0.21014214, 0
414, 221777278, 0.96249026, 0.16516346, 0.15902185, 0.1450711, 0.010414251, -0.19345325, -0.1125679, 0
415, 221793945, 0.96315414, 0.1641795, 0.15629452, 0.14474572, 0.15969029, 0.091470666, -0.10291767, 0
416, 221810612, 0.96386176, 0.16299939, 0.15399852, 0.14382724, -0.06711021, -0.23952363, -0.20395374, 0
417, 221827279, 0.9644806, 0.16219036, 0.15177476, 0.14295536, 0.06368297, -0.10430713, -0.14662838, 0
418, 221843946, 0.96502525, 0.16170104, 0.14912993, 0.14261635, 0.14083004, -0.08076507, -0.17992306, 0
419, 221860613, 0.96549094, 0.16142233, 0.1471206, 0.14186601, 0.1459383, -0.05376079, -0.19930363, 0
420, 221877280, 0.9658833, 0.16112894, 0.14537165, 0.14133014, 0.15782116, 0.03755107, -0.19225788, 0
421, 221893947, 0.9661661, 0.16072682, 0.14417185, 0.14108369, 0.18568115, -0.118839495, -0.34277916, 0
422, 221910614, 0.966324, 0.16056447, 0.14359678, 0.14077246, 0.20865962, -0.12289402, -0.21827984, 0
423, 221927281, 0.96639556, 0.16066603, 0.14320263, 0.14056805, 0.1655432, -0.11257733, -0.22518826, 0
424, 221943948, 0.9664313, 0.16111292, 0.14266144, 0.14036055, 0.09749568, -0.10369604, -0.25201893, 0
425, 221960615, 0.9664009, 0.16162966, 0.14234821, 0.14029332, 0.03531963, -0.024770042, -0.3035984, 0
426, 221977282, 0.96630096, 0.16234192, 0.14224243, 0.14026712, 0.06309637, -0.03947317, -0.20792294, 0
427, 221993949, 0.966107, 0.16328208, 0.14241832, 0.14033264, 0.09786571, -0.054640982, -0.27889156, 0
428, 222010616, 0.9658028, 0.16433913, 0.1430891, 0.14051054, 0.110521235, -0.0464803, -0.2980175, 0
429, 222027283, 0.96534157, 0.16577077, 0.14428781, 0.14077218, 0.11616438, -0.09829698, -0.27350235, 0
430, 222043950, 0.9647913, 0.1673024, 0.14586765, 0.14110473, 0.026680741, -0.071178816, -0.24133873, 0
431, 222060617, 0.9641668, 0.16911052, 0.14762124, 0.14139326, 0.058725346, -0.059834305, -0.110933304, 0
432, 222077284, 0.96345097, 0.1715152, 0.1492922, 0.14162186, 0.002474512, -0.13366197, -0.10823631, 0
433, 222093951, 0.9625767, 0.17413369, 0.15163931, 0.14187819, -0.088770516, -0.020196855, -0.33644295, 0
434, 222110618, 0.96148634, 0.17704853, 0.154888, 0.14215478, -0.03974049, -0.013867079, -0.30704594, 0
435, 222127285, 0.9601998, 0.1803134, 0.15881857, 0.14240876, -0.05288462, -0.010626029, -0.16938019, 0
436, 222143952, 0.9588487, 0.18373479, 0.16283868, 0.1425986, -0.0061612464, 0.006311335, -0.078941345, 0
437, 222160619, 0.9575147, 0.18722579, 0.16657713, 0.14270379, -0.0076081576, -0.02013237, -0.07617378, 0
438, 222177286, 0.95620275, 0.19047907, 0.17028695, 0.14281711, -0.03313736, 0.015635401, -0.13544369, 0
439, 222193953, 0.95483893, 0.1933899, 0.174402, 0.1430626, -0.051718775, 0.13125977, -0.3075533, 0
440, 222210620, 0.9533893, 0.19582342, 0.17919038, 0.1435022, -0.015906524, 0.21143688, -0.52858067, 0
441, 222227287, 0.9518122, 0.19803125, 0.18470733, 0.14394648, 0.11617354, 0.0087877475, -0.6026354, 0
442, 222243954, 0.95008385, 0.20069827, 0.19047101, 0.1441589, 0.08086721, -0.17117728, -0.43038082, 0
443, 222260621, 0.9483164, 0.20378618, 0.1958902, 0.14420336, -0.14836454, -0.2065842, -0.3926258, 0
444, 222277288, 0.9465258, 0.20697443, 0.2011695, 0.14415768, -0.38403112, -0.04198579, -0.45702267, 0
445, 222293955, 0.94458336, 0.21040703, 0.20661929, 0.14422154, -0.29701284, 0.06818687, -0.6142349, 0
446, 222310622, 0.94243556, 0.21430983, 0.21225844, 0.14433628, -0.14992344, 0.088908985, -0.797595, 0
447, 222327289, 0.94006765, 0.21831107, 0.21845038, 0.14454299, -0.0101294955, 0.0030328473, -0.780838, 0
448, 222343956, 0.9374159, 0.22264348, 0.2251927, 0.14480996, 0.08402791, -0.07225369, -0.7277508, 0
449, 222360623, 0.9345037, 0.2274862, 0.23220676, 0.14502788, 0.124736995, -0.14054841, -0.590559, 0
450, 222377290, 0.9314472, 0.23265795, 0.23919126, 0.14513496, -0.10603768, -0.1003857, -0.44189167, 0
451, 222393957, 0.9282053, 0.23815617, 0.24629463, 0.14510569, -0.23261864, -0.017478267, -0.40143585, 0
452, 222410624, 0.92481506, 0.2440679, 0.2533446, 0.14479138, -0.111099795, -9.966443E-4, -0.2998972, 0
453, 222427291, 0.92130095, 0.25036442, 0.26016235, 0.14435318, -0.043945998, -0.008938283, -0.12597561, 0
454, 222443958, 0.9177322, 0.25653258, 0.26683468, 0.14407642, 0.0146664735, 0.11994957, 0.037337303, 0
455, 222460625, 0.914129, 0.26244828, 0.27343473, 0.14395417, 0.08698789, 0.17240314, 0.24421787, 0
456, 222477292, 0.9105214, 0.2682393, 0.2798058, 0.14390074, 0.09224447, 0.11833804, 0.25637436, 0
457, 222493959, 0.9070767, 0.27384534, 0.28552786, 0.14385593, 0.13899466, -0.09821472, 0.34226704, 0
458, 222510626, 0.9038876, 0.27913594, 0.29061726, 0.14356862, -0.090909645, -0.08752141, 0.2737379, 0
459, 222527293, 0.9006967, 0.28416353, 0.29569593, 0.14338931, -0.09692058, -0.13554071, 0.4421053, 0
460, 222543960, 0.8976053, 0.2890392, 0.30047894, 0.1430853, -0.045861505, -0.02456184, 0.54958534, 0
461, 222560627, 0.8946712, 0.29371285, 0.3048104, 0.14278352, 0.09532649, 0.023540385, 0.53899, 0
462, 222577294, 0.8918229, 0.2981325, 0.30894503, 0.14255527, 0.12236552, -0.03551241, 0.474761, 0
463, 222593961, 0.88903105, 0.30222508, 0.31307608, 0.14236379, 0.2785747, -0.07674451, 0.45854664, 0
464, 222610628, 0.88640946, 0.30582502, 0.3170328, 0.14226633, 0.23940025, 0.065540254, 0.41312408, 0
465, 222627295, 0.88389766, 0.30897307, 0.3209439, 0.14232194, 0.21616675, 0.035642046, 0.41924667, 0
466, 222643962, 0.88139814, 0.3119479, 0.3248277, 0.14252432, 0.19907472, -0.025850167, 0.43175983, 0
467, 222660629, 0.8790442, 0.31468165, 0.32844374, 0.14276409, 0.17897397, -0.07411153, 0.49122143, 0
468, 222677296, 0.8769448, 0.31710288, 0.33161667, 0.14298311, 0.20120703, -0.08675142, 0.4539175, 0
469, 222693963, 0.8751522, 0.3191587, 0.334255, 0.14324829, 0.17607233, -0.09203995, 0.3807211, 0
470, 222710630, 0.87350005, 0.32100388, 0.33666968, 0.1435545, 0.17532647, -0.1258237, 0.26245117, 0
471, 222727297, 0.8718943, 0.3227834, 0.33898982, 0.14386523, 0.14059994, -0.08003664, 0.21957397, 0
472, 222743964, 0.8702746, 0.32454127, 0.3413187, 0.14421114, 0.10145275, -0.02084102, 0.24830437, 0
473, 222760631, 0.8687252, 0.32616514, 0.3435257, 0.14464799, 0.12292766, 0.07693741, 0.25342083, 0
474, 222777298, 0.8673859, 0.327624, 0.34531417, 0.14512895, 0.11589437, 0.023878112, 0.29819393, 0
475, 222793965, 0.86629796, 0.3289055, 0.34661317, 0.14563128, 0.038773686, -0.06131765, 0.27742672, 0
476, 222810632, 0.86532956, 0.33020726, 0.34762475, 0.14603093, 0.0062248358, -0.13657022, 0.2526741, 0
477, 222827299, 0.8643867, 0.33159894, 0.3485281, 0.14630856, 0.07737907, -0.11292075, 0.20321465, 0
478, 222843966, 0.86349344, 0.3328416, 0.34942797, 0.14661455, 0.15845191, -0.084888436, 0.15170956, 0
479, 222860633, 0.86270547, 0.3338844, 0.35025308, 0.14691374, 0.14652415, 0.050100654, 0.118751526, 0
480, 222877300, 0.86195236, 0.33483335, 0.3510637, 0.14723907, 0.089883275, 0.096748255, 0.09171581, 0
481, 222893967, 0.8611777, 0.3357684, 0.35190767, 0.14762677, 0.002101916, 0.10069996, 0.05195141, 0
482, 222910634, 0.8603743, 0.33669034, 0.35282302, 0.14802629, -0.053460278, 0.0088095395, 0.10236359, 0
483, 222927301, 0.8595929, 0.33768073, 0.353654, 0.1483269, -0.0023973999, -0.067023486, 0.17903423, 0
484, 222943968, 0.85897505, 0.3386553, 0.35416353, 0.14846826, 0.0049418714, -0.07826775, 0.19065857, 0
485, 222960635, 0.85847384, 0.3395613, 0.35447827, 0.14854625, 0.018612595, -0.04857026, 0.18585396, 0
486, 222977302, 0.8580037, 0.3404248, 0.3547708, 0.14858787, -0.010827415, -0.065625414, 0.22959995, 0
487, 222993969, 0.85757726, 0.34113193, 0.355115, 0.14860645, -0.020850407, -0.033883892, 0.31246948, 0
488, 223010636, 0.8572788, 0.34162098, 0.3553788, 0.14857347, 0.023908734, 0.0014809968, 0.36988163, 0
489, 223027303, 0.8571469, 0.34194487, 0.35540068, 0.1485371, 0.06309793, 0.013186594, 0.3136053, 0
490, 223043970, 0.8570342, 0.34218016, 0.35543048, 0.14857437, 0.10779583, 0.08045505, 0.16892624, 0
491, 223060637, 0.85683876, 0.34236535, 0.35566583, 0.14871173, 0.16613762, 0.08484507, 0.044888496, 0
492, 223077304, 0.8566141, 0.34243315, 0.35604453, 0.14894398, 0.14712875, 0.018703565, 0.006354332, 0
493, 223093971, 0.85644144, 0.34236187, 0.35643902, 0.14915699, 0.099170014, -0.02792772, 0.022206306, 0
494, 223110638, 0.8563807, 0.34217837, 0.3566746, 0.14936364, 0.012410333, -0.06016455, 0.018548965, 0
495, 223127305, 0.8563435, 0.3420582, 0.35682306, 0.14949773, -0.028067416, -0.08992664, 0.034436226, 0
496, 223143972, 0.85625577, 0.34201103, 0.35705933, 0.14954378, -0.013208275, 0.033044826, 0.032364845, 0
497, 223160639, 0.8561394, 0.34201342, 0.35730073, 0.14962788, 0.07276241, 0.057440147, 0.048336983, 0
498, 223177306, 0.8560841, 0.34205228, 0.35735673, 0.14972126, 0.092434004, 0.03093464, 0.032334328, 0
499, 223193973, 0.8560592, 0.3420286, 0.35739413, 0.14982857, 0.02621047, -0.006480758, 0.01474762, 0
500, 223210640, 0.85598624, 0.34194618, 0.35760963, 0.14991964, -0.02586112, -0.009478067, 0.040678024, 0
501, 223227307, 0.85594064, 0.34181082, 0.35780957, 0.15001158, 0.015333659, -0.008215219, 0.11586475, 0
502, 223243974, 0.8559566, 0.34169897, 0.357839, 0.15010537, 0.044894587, -0.013912117, 0.12731552, 0
503, 223260641, 0.8560777, 0.34153256, 0.3576634, 0.15021192, 0.04817643, -0.072511405, 0.1502819, 0
504, 223277308, 0.85643595, 0.34110814, 0.3571573, 0.15033782, 0.079262614, -0.08586675, 0.14149666, 0
505, 223293975, 0.8569864, 0.34040782, 0.35644448, 0.15048021, 0.09518791, -0.041053742, 0.16601944, 0
506, 223310642, 0.85772735, 0.33954757, 0.35540777, 0.15065473, 0.012717663, -0.0329657, 0.2255907, 0
507, 223327309, 0.85871315, 0.338679, 0.35380998, 0.15075493, -0.0628438, -0.22995147, 0.3965931, 0
508, 223343976, 0.85993963, 0.3377833, 0.35169128, 0.15073068, -0.08725096, -0.43145198, 0.6548176, 0
509, 223360643, 0.8615571, 0.33654794, 0.34898987, 0.15053572, -0.009730636, -0.43406752, 0.7066965, 0
510, 223377310, 0.86376345, 0.3346721, 0.34545776, 0.15022084, 0.1558833, -0.3168884, 0.97088623, 0
511, 223393977, 0.86637133, 0.3324643, 0.34117365, 0.14989553, 0.25810114, -0.20918801, 1.2284565, 0
512, 223410644, 0.8695575, 0.3296376, 0.3358794, 0.14964592, 0.412233, -0.10957655, 1.3104515, 0
513, 223427311, 0.8732924, 0.32610103, 0.32970357, 0.14937887, 0.45457795, -0.03936935, 1.2402983, 0
514, 223443978, 0.8774464, 0.32174468, 0.32296866, 0.1491958, 0.4469982, -0.04098423, 0.98539066, 0
515, 223460645, 0.88179964, 0.31679344, 0.3159686, 0.14911555, 0.40863845, -0.04803517, 0.75825596, 0
516, 223477312, 0.88629097, 0.31130862, 0.30872938, 0.14920297, 0.40428978, 0.027746899, 0.6433706, 0
517, 223493979, 0.89093184, 0.30523214, 0.3011705, 0.14956734, 0.33644265, 0.048806958, 0.56123066, 0
518, 223510646, 0.8957022, 0.29885903, 0.29309186, 0.1499939, 0.301966, 0.06962965, 0.47534275, 0
519, 223527313, 0.9005006, 0.29237252, 0.2845774, 0.15044163, 0.21921524, 0.094512455, 0.3992691, 0
520, 223543980, 0.90525144, 0.2856028, 0.27588716, 0.1511206, 0.20715739, 0.17673571, 0.2872753, 0
521, 223560647, 0.9099393, 0.27874354, 0.26697654, 0.15177765, 0.25951666, 0.09034684, 0.21512032, 0
522, 223577314, 0.9145291, 0.27183315, 0.2579155, 0.15239096, 0.08692799, 0.122129716, 0.0777359, 0
523, 223593981, 0.9187902, 0.26486623, 0.24950118, 0.15303448, 0.057703447, 0.13225731, -0.04595375, 0
524, 223610648, 0.92281526, 0.2576996, 0.24163774, 0.15366828, 0.13661246, 0.20504385, -0.050866127, 0
525, 223627315, 0.92663395, 0.25036645, 0.23419203, 0.15433864, -0.038192328, 0.32198873, -0.11717224, 0
526, 223643982, 0.93032664, 0.24274722, 0.22704504, 0.15497299, -0.14772172, 0.28497702, -0.17889881, 0
527, 223660649, 0.9337599, 0.23563626, 0.21999057, 0.15547433, -0.1738211, 0.22169378, -0.15260792, 0
528, 223677316, 0.9370542, 0.2288665, 0.21272038, 0.15588395, -0.26870838, 0.2227928, -0.29556274, 0
529, 223693983, 0.9400082, 0.22265422, 0.20606367, 0.15603678, -0.28790838, 0.05140597, -0.48403835, 0
530, 223710650, 0.94275355, 0.21658294, 0.19990572, 0.1560301, -0.25835863, 0.1549736, -0.52179337, 0
531, 223727317, 0.94522625, 0.21075273, 0.19440788, 0.15600164, -0.32288414, 0.14123929, -0.5305557, 0
532, 223743984, 0.9474844, 0.20511793, 0.18946084, 0.15589954, -0.2956397, 0.17953242, -0.5125027, 0
533, 223760651, 0.9495593, 0.20009573, 0.18469173, 0.15552482, -0.23193581, 0.032422453, -0.41895485, 0
534, 223777318, 0.9515269, 0.1951835, 0.1801367, 0.15508404, -0.3076145, 0.1515885, -0.66141987, 0
535, 223793985, 0.9533191, 0.19078599, 0.17585102, 0.15446739, -0.18400782, -0.0054002963, -0.648118, 0
536, 223810652, 0.9548617, 0.18721353, 0.17205632, 0.1535809, -0.1949936, -0.08035693, -0.5867901, 0
537, 223827319, 0.95630735, 0.18376845, 0.16860685, 0.1525688, -0.1437451, -0.099388056, -0.569849, 0
538, 223843986, 0.95763737, 0.18077086, 0.16543408, 0.15127587, -0.044286188, -0.20075732, -0.5357065, 0
539, 223860653, 0.9588589, 0.17777927, 0.16287696, 0.14985043, -0.13990459, 0.120997064, -0.45680523, 0
540, 223877320, 0.9600223, 0.17479555, 0.16042699, 0.14854935, -0.14295329, 0.18374643, -0.24500561, 0
541, 223893987, 0.9611563, 0.17195313, 0.15782411, 0.14731637, -0.17433965, 0.123297125, -0.2288208, 0
542, 223910654, 0.9622427, 0.16945668, 0.15495811, 0.14615591, -0.2038494, -0.05955894, -0.31105518, 0
543, 223927321, 0.963155, 0.16748588, 0.15251136, 0.14498708, -0.25168452, -0.059179302, -0.4525175, 0
544, 223943988, 0.96398187, 0.16573942, 0.15028171, 0.1438222, -0.09376134, -0.05431052, -0.3597746, 0
545, 223960655, 0.9647092, 0.16424294, 0.14824086, 0.14277631, -0.05617987, 0.20853983, -0.29338646, 0
546, 223977322, 0.96542746, 0.16231823, 0.14665487, 0.14175676, -0.061517917, 0.03006797, -0.304039, 0
547, 223993989, 0.9660613, 0.1606145, 0.14526905, 0.14080389, 0.09402754, 0.01155182, -0.121385574, 0
548, 224010656, 0.9666088, 0.15945587, 0.14358096, 0.14009312, 0.09624479, -0.10448538, -0.089372635, 0
549, 224027323, 0.9671287, 0.15867633, 0.14174108, 0.13926022, -0.057904944, 0.016237322, -0.14524364, 0
550, 224043990, 0.96764517, 0.15777333, 0.1399636, 0.1384942, -0.083419725, -0.030361665, -0.2725153, 0
551, 224060657, 0.9681752, 0.15696968, 0.13762355, 0.13804808, 0.05445893, -0.07319278, -0.085736275, 0
552, 224077324, 0.96869373, 0.15614748, 0.13556036, 0.13738273, -0.007917276, -0.08682942, -0.16819668, 0
553, 224093991, 0.9691786, 0.15540297, 0.13350478, 0.13681829, 0.09570199, -0.045313228, -0.07542229, 0
554, 224110658, 0.96959287, 0.1548262, 0.13156156, 0.13641946, 0.04941078, -0.17525104, -0.16767597, 0
555, 224127325, 0.9699463, 0.15435721, 0.13016176, 0.13577981, 0.09653044, -0.10538871, -0.1111536, 0
556, 224143992, 0.9702157, 0.15407945, 0.12899536, 0.13528271, 0.11430732, -0.047641005, -0.08500481, 0
557, 224160659, 0.9704325, 0.15392493, 0.12785284, 0.13498865, 0.19856365, -0.0739639, -0.07381153, 0
558, 224177326, 0.9706603, 0.1538101, 0.12670948, 0.13455671, 0.17819503, 0.02100776, 0.03783703, 0
559, 224193993, 0.97089416, 0.15353724, 0.12552007, 0.13429673, 0.07887974, 0.00709296, -0.045106888, 0
560, 224210660, 0.97103083, 0.15336566, 0.12480012, 0.13417578, 0.03345162, 0.08457238, -0.09429169, 0
561, 224227327, 0.97108924, 0.15328312, 0.12445093, 0.13417143, 0.09598082, 0.12660635, -0.095214844, 0
562, 224243994, 0.97108585, 0.15319577, 0.12441557, 0.13432899, 0.1566761, 0.10269035, -0.12686253, 0
563, 224260661, 0.9710368, 0.15327328, 0.12442801, 0.13458376, 0.15632363, -0.030782316, -0.14600372, 0
564, 224277328, 0.97092503, 0.15373805, 0.12437584, 0.13490789, 0.10354797, -0.04384229, -0.16524601, 0
565, 224293995, 0.97079045, 0.15426019, 0.12434852, 0.13530445, 0.045420405, -0.0862465, -0.21596909, 0
566, 224310662, 0.97061694, 0.15478699, 0.12456632, 0.13574691, 0.06272511, -0.07261947, -0.22052956, 0
567, 224327329, 0.970401, 0.15530133, 0.12510052, 0.13621046, 0.038509607, -0.008539201, -0.22698975, 0
568, 224343996, 0.97016937, 0.15583743, 0.12571512, 0.1366815, 0.050330423, -0.045052838, -0.1414299, 0
569, 224360663, 0.9698848, 0.1567915, 0.12633796, 0.1370351, 0.04084822, -0.081431694, -0.09155083, 0
570, 224377330, 0.9695779, 0.1581888, 0.12668668, 0.13727929, -0.029044168, -0.09825753, -0.12635994, 0
571, 224393997, 0.9691976, 0.15973979, 0.12736218, 0.13754381, -0.11531145, -0.037751675, -0.27562714, 0
572, 224410664, 0.96873987, 0.16142426, 0.12844385, 0.13779487, -0.06611413, 0.037627287, -0.25063324, 0
573, 224427331, 0.96820474, 0.16319242, 0.12996896, 0.13804378, -0.04411844, 0.03123057, -0.24334908, 0
574, 224443998, 0.96757686, 0.16512787, 0.1318976, 0.13831566, -0.024784345, 0.02150865, -0.21832657, 0
575, 224460665, 0.96685016, 0.16721109, 0.13425583, 0.13862483, -0.046360165, -0.03739305, -0.25500584, 0
576, 224477332, 0.9660658, 0.16933258, 0.13697349, 0.13885884, -0.0025280432, -0.00734363, -0.17394352, 0
577, 224493999, 0.9652454, 0.17162614, 0.13967799, 0.13905457, -0.02364063, -0.013719225, -0.15963078, 0
578, 224510666, 0.9643477, 0.17415228, 0.14257583, 0.13920066, -0.07855151, 0.043850895, -0.17924976, 0
579, 224527333, 0.9634068, 0.17667495, 0.14561851, 0.13938735, -0.11621165, 0.101211585, -0.20468235, 0
580, 224544000, 0.9623896, 0.17911333, 0.14907672, 0.13964538, -0.06697488, 0.07779179, -0.3675661, 0
581, 224560667, 0.96126807, 0.18148832, 0.1530734, 0.13997906, 0.016965974, 0.03726475, -0.4729271, 0
582, 224577334, 0.9600337, 0.18390644, 0.15758075, 0.14029339, 0.07475916, -0.11068618, -0.35678768, 0
583, 224594001, 0.95872873, 0.18629204, 0.16243386, 0.14053513, -0.05660991, 0.08018337, -0.3177986, 0
584, 224610668, 0.95736635, 0.18883699, 0.16730468, 0.14071049, -0.03612841, 0.07393976, -0.33013058, 0
585, 224627335, 0.9558519, 0.192063, 0.17219567, 0.14073935, -0.13216344, 0.10669223, -0.5224705, 0
586, 224644002, 0.9540571, 0.19581105, 0.17779213, 0.14079475, -0.16999725, 0.054742124, -0.8808117, 0
587, 224660669, 0.95200956, 0.19959608, 0.18443134, 0.14079915, -0.024635263, -0.09798059, -0.9147825, 0
588, 224677336, 0.94963986, 0.20393811, 0.19190899, 0.14058624, -0.012896139, -0.118521765, -0.5977726, 0
589, 224694003, 0.94717187, 0.20834106, 0.19932759, 0.14045691, -0.04276138, 0.13514073, -0.31391716, 0
590, 224710670, 0.94472146, 0.21266867, 0.20622322, 0.14051813, -0.05338864, 0.1777233, -0.3297844, 0
591, 224727337, 0.9419899, 0.21753676, 0.2133694, 0.14073488, -0.14239183, 0.17573784, -0.4697008, 0
592, 224744004, 0.9389223, 0.22268398, 0.22111364, 0.14122945, -0.15594131, 0.10057279, -0.44526386, 0
593, 224760671, 0.9355888, 0.22806998, 0.22920217, 0.14185971, -0.053997602, 0.19294912, -0.3333645, 0
594, 224777338, 0.9321411, 0.23344108, 0.23720287, 0.1426649, -0.03876765, 0.2187575, -0.30463696, 0
595, 224794005, 0.9285685, 0.23899798, 0.24502577, 0.14353737, 0.038203727, 0.2031896, -0.24007988, 0
596, 224810672, 0.924874, 0.24504752, 0.25246626, 0.1442936, 0.12254478, 0.11558436, -0.13152695, 0
597, 224827339, 0.9211186, 0.25090685, 0.2598284, 0.14517431, 0.0074718148, 0.039318386, -0.28814602, 0
598, 224844006, 0.917132, 0.2569324, 0.26734006, 0.14623278, 0.07644925, -0.18167469, -0.06522751, 0
599, 224860673, 0.91316754, 0.26298383, 0.27438414, 0.1472346, 0.027957223, -0.11967219, 0.050463676, 0
600, 224877340, 0.90928954, 0.26894185, 0.28099224, 0.14800796, -0.07177091, -0.049511027, 0.13427639, 0
601, 224894007, 0.90531576, 0.2749775, 0.2875821, 0.1486191, -0.061120957, 0.086820476, 0.09211826, 0
602, 224910674, 0.9013854, 0.28106505, 0.29371792, 0.14911985, 0.16075544, 0.120066464, 0.22741222, 0
603, 224927341, 0.8976095, 0.2870612, 0.29911315, 0.14974809, 0.12516032, 0.10811411, 0.30884838, 0
604, 224944008, 0.8939528, 0.292982, 0.30389902, 0.15051755, -0.03769099, -0.043745287, 0.2894888, 0
605, 224960675, 0.89024276, 0.2989281, 0.30864608, 0.15115441, -0.117502324, -0.14297408, 0.31373978, 0
606, 224977342, 0.8866059, 0.3046105, 0.31336644, 0.15147261, -0.08468325, -0.14041017, 0.48058033, 0
607, 224994009, 0.8831834, 0.3101065, 0.31761208, 0.15147202, 0.03797351, -0.059488196, 0.7779646, 0
608, 225010676, 0.87999314, 0.3155103, 0.3210703, 0.15159012, 0.15379725, 0.061779875, 0.7718067, 0
609, 225027343, 0.87683284, 0.32064858, 0.32442322, 0.15198132, 0.27667663, -0.024088439, 0.4940567, 0
610, 225044010, 0.87381846, 0.32503378, 0.32792524, 0.15251042, 0.23082206, -0.14926486, 0.46740246, 0
611, 225060677, 0.87096673, 0.3286857, 0.3316251, 0.15299468, 0.20745333, -0.22356413, 0.65118694, 0
612, 225077344, 0.8684764, 0.33168048, 0.3349952, 0.15334684, 0.18747753, -0.16512623, 0.7836065, 0
613, 225094011, 0.8661485, 0.3343494, 0.33815044, 0.15379198, 0.16516848, -0.058912873, 0.71713734, 0
614, 225110678, 0.8639674, 0.33663723, 0.3411832, 0.15436901, 0.11486353, -0.104890384, 0.61575794, 0
615, 225127345, 0.86193, 0.33857316, 0.34417307, 0.1548869, 0.043621905, -0.16386047, 0.42521477, 0
616, 225144012, 0.860128, 0.33999425, 0.34710655, 0.15524516, 0.07487326, -0.22725368, 0.4033661, 0
617, 225160679, 0.8585526, 0.34099323, 0.3498794, 0.15554982, 0.09544271, -0.10859757, 0.48993683, 0
618, 225177346, 0.8572238, 0.3418312, 0.35216516, 0.15587983, 0.18679447, -0.060300443, 0.5528765, 0
619, 225194013, 0.85610163, 0.34268615, 0.35391596, 0.15620406, 0.19868045, -0.056320794, 0.43798065, 0
620, 225210680, 0.85510427, 0.34336147, 0.3555117, 0.15656042, 0.18045408, -0.07712091, 0.27378845, 0
621, 225227347, 0.8541574, 0.3436546, 0.35728955, 0.15703829, 0.14077337, -0.06906662, 0.16542625, 0
622, 225244014, 0.8532863, 0.34359536, 0.35917327, 0.15760554, 0.13300474, 0.0027382572, 0.17197895, 0
623, 225260681, 0.8525065, 0.3433292, 0.36097518, 0.15828621, 0.09797668, -0.004196232, 0.17380524, 0
624, 225277348, 0.85183847, 0.3432126, 0.36238796, 0.15890649, 0.040239707, -0.042354364, 0.20046425, 0
625, 225294015, 0.851275, 0.3431909, 0.36348134, 0.15947478, -0.0011539974, -0.060812958, 0.19909, 0
626, 225310682, 0.85077935, 0.34324628, 0.36439502, 0.15991537, -0.004036644, -0.046507012, 0.22275352, 0
627, 225327349, 0.8503978, 0.34313917, 0.3652015, 0.16033381, -0.0034821082, 0.02530435, 0.14037609, 0
628, 225344016, 0.8500804, 0.342947, 0.36593872, 0.16074724, 0.0299561, -0.0012503315, 0.10202789, 0
629, 225360683, 0.84986573, 0.34279937, 0.36643767, 0.16106057, 0.04574148, -0.03864293, 0.1396513, 0
630, 225377350, 0.849707, 0.34279394, 0.36673626, 0.16122878, 0.0229331, 0.024834748, 0.11998081, 0
631, 225394017, 0.8496113, 0.34275985, 0.36692423, 0.16137879, 0.011282487, 0.027295401, 0.076087, 0
632, 225410684, 0.84950936, 0.34271002, 0.36714354, 0.16152242, 0.027988963, -0.033115458, 0.027907372, 0
633, 225427351, 0.8494004, 0.34260863, 0.36741057, 0.16170287, 0.06815871, 0.00761598, -0.031843185, 0
634, 225444018, 0.84928745, 0.3423958, 0.3677685, 0.16193296, 0.07610616, 0.015366516, -0.06359196, 0
635, 225460685, 0.84920037, 0.34209037, 0.36815667, 0.16215341, 0.047354348, 0.028540146, 0.0041923523, 0
636, 225477352, 0.84907895, 0.34182307, 0.36859438, 0.16235802, 0.011212751, 0.055779446, 0.04102707, 0
637, 225494019, 0.8489687, 0.34155, 0.36901528, 0.16255374, -0.0016361148, 0.03545452, 0.079297066, 0
638, 225510686, 0.8488577, 0.3412245, 0.3694767, 0.16276869, -0.016046442, 0.028065404, 0.064665794, 0
639, 225527353, 0.8488087, 0.34092525, 0.3697891, 0.16294095, -0.024156833, 0.04200233, 0.08388519, 0
640, 225544020, 0.8488078, 0.3407513, 0.36990875, 0.16303793, -0.0783509, -0.01391927, 0.030381203, 0
641, 225560687, 0.84879804, 0.34073308, 0.36995786, 0.16301537, -0.02923706, -0.0024038819, -0.014371872, 0
642, 225577354, 0.84883606, 0.34073573, 0.3698911, 0.16296422, -0.013070367, 6.571281E-4, -0.03763771, 0
643, 225594021, 0.8488975, 0.34063923, 0.36984456, 0.16295087, 0.019395113, -0.008262827, -0.015336037, 0
644, 225610688, 0.84900457, 0.340595, 0.36965922, 0.16290629, 0.038293805, -0.08213051, 0.06469059, 0
645, 225627355, 0.84918755, 0.3404933, 0.36934176, 0.16288498, 0.02808865, -0.04989614, 0.08090687, 0
646, 225644022, 0.8494002, 0.34038547, 0.3689668, 0.16285121, 0.0656766, -0.0863672, 0.16679478, 0
647, 225660689, 0.8497844, 0.34008598, 0.3683552, 0.16285756, 0.029062496, -0.0704001, 0.26774025, 0
648, 225677356, 0.85030836, 0.3396757, 0.36749786, 0.16291602, 0.07498122, -0.14322263, 0.28605938, 0
649, 225694023, 0.8510381, 0.33917096, 0.36624858, 0.162971, -0.03589976, -0.16627128, 0.32609844, 0
650, 225710690, 0.8519934, 0.33837286, 0.36475158, 0.16299559, -0.08028876, -0.20735878, 0.49752426, 0
651, 225727357, 0.8534156, 0.3374683, 0.3623791, 0.16272247, 0.043741263, -0.2797316, 0.8464012, 0
652, 225744024, 0.85536516, 0.33608824, 0.35916826, 0.1624601, 0.05158277, -0.2346799, 0.8839359, 0
653, 225760691, 0.8576605, 0.33427835, 0.3554791, 0.1622076, 0.25483093, -0.31086272, 1.1170139, 0
654, 225777358, 0.8605201, 0.3319118, 0.35085788, 0.16198295, 0.49990574, -0.40307343, 1.2728815, 0
655, 225794025, 0.86421806, 0.3285351, 0.34502888, 0.16170034, 0.51584756, -0.40333605, 1.4033413, 0
656, 225810692, 0.8686654, 0.32404172, 0.33820167, 0.1613604, 0.33765945, -0.13241199, 1.5239706, 0
657, 225827359, 0.87354517, 0.318675, 0.33075565, 0.1611398, 0.22607955, 0.0095019825, 1.4721336, 0
658, 225844026, 0.8788204, 0.31269366, 0.3224921, 0.16092384, 0.22275726, -0.042016413, 1.3916101, 0
659, 225860693, 0.88443726, 0.30616418, 0.31340852, 0.16065352, 0.17082715, 0.012675643, 1.0869904, 0
660, 225877360, 0.89023805, 0.29909402, 0.30385646, 0.16028157, 0.20849088, 0.024561616, 0.8621731, 0
661, 225894027, 0.89613175, 0.29165986, 0.29377612, 0.15993139, 0.14676844, 0.073030174, 0.6643877, 0
662, 225910694, 0.90191114, 0.28367665, 0.2837922, 0.15983066, 0.11074709, 0.26739055, 0.37992764, 0
663, 225927361, 0.90755653, 0.27534026, 0.2738056, 0.15987293, 0.24955356, 0.331094, 0.22449207, 0
664, 225944028, 0.9131911, 0.26661134, 0.26355207, 0.15981507, 0.20989297, 0.2188212, 0.034805298, 0
665, 225960695, 0.91844076, 0.25761977, 0.25402135, 0.15991196, -0.027468178, 0.24849857, -0.18038464, 0
666, 225977362, 0.92324764, 0.2486908, 0.24522898, 0.16009268, -0.050649825, 0.26380363, -0.15099812, 0
667, 225994029, 0.92784584, 0.23980278, 0.23647623, 0.16023694, -0.07667299, 0.22360437, -0.18626499, 0
668, 226010696, 0.9322534, 0.2308309, 0.227904, 0.16025166, -0.18655263, 0.20727831, -0.34537506, 0
669, 226027363, 0.9363597, 0.22220357, 0.21959344, 0.16010842, -0.16817138, 0.15892375, -0.48303986, 0
670, 226044030, 0.94020855, 0.21419017, 0.2112871, 0.15965064, -0.18537137, 0.21040459, -0.5928354, 0
671, 226060697, 0.94367373, 0.20648988, 0.20373386, 0.15916775, -0.31470177, 0.27551067, -0.7232809, 0
672, 226077364, 0.9468062, 0.19914982, 0.19689284, 0.15852602, -0.27454656, 0.26112425, -0.6898594, 0
673, 226094031, 0.9497121, 0.19204862, 0.19038996, 0.15784846, -0.23100813, 0.261733, -0.6260538, 0
674, 226110698, 0.95235384, 0.1852537, 0.18430115, 0.15727787, -0.28698146, 0.15679367, -0.75533295, 0
675, 226127365, 0.9547628, 0.17897558, 0.17850754, 0.1566233, -0.24152598, 0.10077607, -0.7419872, 0
676, 226144032, 0.9568949, 0.17341897, 0.17320214, 0.15581776, -0.23448375, 0.07973813, -0.98249054, 0
677, 226160699, 0.958736, 0.16828659, 0.16884243, 0.15491028, -0.26465857, -0.009450798, -0.9214058, 0
678, 226177366, 0.96032554, 0.1638382, 0.16509305, 0.15387139, -0.22343384, -0.13047546, -0.7521124, 0
679, 226194033, 0.96179855, 0.1598927, 0.16146486, 0.15266666, -0.18050951, -0.07508437, -0.5672045, 0
680, 226210700, 0.96325386, 0.15635136, 0.1573858, 0.15141413, -0.14945428, -0.07095408, -0.43465137, 0
681, 226227367, 0.96463865, 0.15313128, 0.15330583, 0.15006842, -0.19547191, -0.07791997, -0.54249763, 0
682, 226244034, 0.9658787, 0.15029058, 0.14962351, 0.14867388, -0.09443702, -0.04389258, -0.48416805, 0
683, 226260701, 0.9669934, 0.14787363, 0.14616182, 0.14728951, -0.0644133, -0.019003853, -0.41276932, 0
684, 226277368, 0.968, 0.14561874, 0.14307843, 0.14594577, -0.15921432, 0.0367538, -0.34129047, 0
685, 226294035, 0.9689049, 0.14342415, 0.14034921, 0.14475867, -0.13323852, 0.09422312, -0.3860922, 0
686, 226310702, 0.969794, 0.14132112, 0.13760157, 0.14350559, -0.005106712, -0.014500626, -0.26655483, 0
687, 226327369, 0.97056633, 0.13973707, 0.13486648, 0.14242803, -0.025190916, -0.0014730621, -0.19278812, 0
688, 226344036, 0.97133017, 0.13811213, 0.13196798, 0.14151803, -0.02416432, -0.022062965, -0.20216274, 0
689, 226360703, 0.97204465, 0.13666084, 0.12916122, 0.14060895, -0.030194476, 0.034662165, -0.24423313, 0
690, 226377370, 0.9726423, 0.1355748, 0.12663239, 0.13982452, -0.050019965, -0.092026204, -0.29999256, 0
691, 226394037, 0.9731795, 0.13482396, 0.124271475, 0.13892816, -0.016350532, -0.059294075, -0.24071217, 0
692, 226410704, 0.9736548, 0.13418539, 0.12200192, 0.13822423, 0.06586849, -0.108655125, -0.30877686, 0
693, 226427371, 0.9740738, 0.13372423, 0.12017991, 0.13731334, 0.12999156, -0.08231479, -0.24321175, 0
694, 226444038, 0.974461, 0.13328484, 0.118445806, 0.13649748, 0.052102547, -0.11802501, -0.18547249, 0
695, 226460705, 0.9747568, 0.13297576, 0.117180526, 0.13577735, 0.00986128, -0.04974884, -0.19394875, 0
696, 226477372, 0.97498953, 0.13265683, 0.1162498, 0.13521717, 0.17078234, 0.029839985, -0.074296, 0
697, 226494039, 0.97521496, 0.1325347, 0.11502915, 0.13475424, 0.28097713, 0.0682641, 0.0035276413, 0
698, 226510706, 0.9753713, 0.13246943, 0.113858506, 0.13468204, 0.057684112, 0.06699443, -0.18784523, 0
699, 226527373, 0.9754865, 0.13255775, 0.11305804, 0.13443425, 0.018721668, -0.056799226, -0.08133125, 0
700, 226544040, 0.97554165, 0.13305901, 0.112303354, 0.13417163, -0.013815112, -0.031617697, -0.032423973, 0
701, 226560707, 0.9755581, 0.13360436, 0.111678414, 0.13403139, 0.10839965, 0.0731863, -0.043911934, 0
702, 226577374, 0.9755655, 0.13394791, 0.1111977, 0.1340342, 0.2238077, 0.09447915, -0.038128853, 0
703, 226594041, 0.97552073, 0.1342108, 0.111125134, 0.1341578, 0.18058355, 0.09899132, -0.10338116, 0
704, 226610708, 0.9754684, 0.13435887, 0.11117436, 0.13434844, 0.08732752, -0.040495854, -0.030173302, 0
705, 226627375, 0.97538656, 0.13467543, 0.11135082, 0.13447993, 0.006755679, -0.09026638, -0.04211521, 0
706, 226644042, 0.97528267, 0.13503827, 0.11175891, 0.13453105, 0.09907391, -0.035853043, 0.012848854, 0
707, 226660709, 0.97516817, 0.13540399, 0.11223901, 0.13459298, 0.132493, 0.006513056, 0.112270355, 0
708, 226677376, 0.97504705, 0.13555916, 0.11293398, 0.13473336, 0.070412055, 0.047852673, -0.02965355, 0
709, 226694043, 0.9748825, 0.13561279, 0.114013664, 0.13496092, 0.053717315, 0.046493154, -0.115719795, 0
710, 226710710, 0.9746844, 0.13568601, 0.115310505, 0.1352152, 0.07235092, -0.0106191, -0.09897709, 0
711, 226727377, 0.9744681, 0.13587321, 0.11667938, 0.13541214, -0.0034755147, 0.001009161, -0.08812237, 0
712, 226744044, 0.97422236, 0.13634685, 0.11794479, 0.13560745, -0.07659141, -0.042704944, -0.043893814, 0
713, 226760711, 0.9739313, 0.13694943, 0.11938784, 0.13582815, -0.02118154, 0.019173166, -0.14822197, 0
714, 226777378, 0.973577, 0.13771078, 0.12116409, 0.13602538, 0.10358339, 0.057127118, -0.16912174, 0
715, 226794045, 0.97311527, 0.13878964, 0.123338476, 0.13627888, 0.08497672, 0.078069836, -0.23780537, 0
716, 226810712, 0.97257876, 0.14006236, 0.1256824, 0.13666517, 0.020807827, 0.048591383, -0.2349186, 0
717, 226827379, 0.9719879, 0.14162509, 0.12803064, 0.13707735, -0.00745818, 0.039351802, -0.26189804, 0
718, 226844046, 0.97133434, 0.14332192, 0.13054112, 0.13757703, -0.060187344, 0.097734615, -0.34177208, 0
719, 226860713, 0.970586, 0.14519875, 0.13332666, 0.13821822, 0.022067545, 0.104471855, -0.42189693, 0
720, 226877380, 0.9697439, 0.14718202, 0.13646646, 0.13896532, 0.10815445, 0.043214887, -0.49372673, 0
721, 226894047, 0.9688291, 0.14924835, 0.13992457, 0.1396999, 0.17107593, -0.0049702576, -0.40199947, 0
722, 226910714, 0.96789896, 0.15134218, 0.1433278, 0.14044346, 0.056413777, 0.031007618, -0.34871483, 0
723, 226927381, 0.9668786, 0.15351363, 0.14703418, 0.14128119, -0.023792507, 0.051870428, -0.52541924, 0
724, 226944048, 0.9656274, 0.15630402, 0.1514507, 0.142111, -0.037742287, 0.049074728, -0.581234, 0
725, 226960715, 0.96416634, 0.15922171, 0.1567435, 0.14304945, 0.028603958, 0.10349958, -0.7432804, 0
726, 226977382, 0.962482, 0.16217786, 0.16295063, 0.14413135, 0.18620965, 0.029449731, -0.7075815, 0
727, 226994049, 0.96064854, 0.16536179, 0.16960657, 0.14506343, 0.23675375, -0.07804659, -0.56000996, 0
728, 227010716, 0.9586782, 0.1689538, 0.17645518, 0.14578903, -0.0061365482, -0.018194066, -0.3826952, 0
729, 227027383, 0.9566459, 0.17289664, 0.18301444, 0.1464281, -0.24050564, 0.12449034, -0.39074993, 0
730, 227044050, 0.9545282, 0.17727627, 0.18932551, 0.14698665, -0.29472688, 0.070731565, -0.5103321, 0
731, 227060717, 0.95218056, 0.18234076, 0.195704, 0.14766236, -0.24396451, -0.054561973, -0.53415966, 0
732, 227077384, 0.9495199, 0.18782161, 0.20274197, 0.14842841, -0.06786021, -0.11114036, -0.55492306, 0
733, 227094051, 0.94668347, 0.19341987, 0.2101256, 0.14908606, -0.008999302, 0.03475917, -0.4731598, 0
734, 227110718, 0.94368994, 0.19894664, 0.21786097, 0.14968716, -0.08917474, 0.22927333, -0.37901306, 0
735, 227127385, 0.94050115, 0.20469391, 0.22572188, 0.1503592, -0.057428747, 0.3347014, -0.30573368, 0
736, 227144052, 0.93712705, 0.21063857, 0.23364325, 0.15111393, -0.07926552, 0.23105752, -0.26111317, 0
737, 227160719, 0.9335303, 0.21684405, 0.2416424, 0.1520165, -0.105331376, 0.09791365, -0.14035892, 0
738, 227177386, 0.92973197, 0.22342005, 0.24969302, 0.15275943, -0.17511927, 0.017934233, -0.08538532, 0
739, 227194053, 0.9258576, 0.23006828, 0.2575761, 0.15333313, -0.2078313, 0.011156202, -0.044034004, 0
740, 227210720, 0.92192227, 0.23651348, 0.26542926, 0.1538448, -0.15906143, -0.112823084, -0.17804623, 0
741, 227227387, 0.91786206, 0.24282967, 0.27337715, 0.15436342, -0.19927745, -0.202895, 0.09349728, 0
742, 227244054, 0.913827, 0.248801, 0.2811519, 0.15482982, -0.23826481, -0.06962026, 0.27592087, 0
743, 227260721, 0.90985566, 0.25493896, 0.28839022, 0.15491973, -0.20968689, 0.116355255, 0.4466114, 0
744, 227277388, 0.9061321, 0.26085275, 0.29485396, 0.15473135, -0.18402447, 0.19978459, 0.35180855, 0
745, 227294055, 0.90233886, 0.26707634, 0.30100355, 0.15444075, -0.15898655, -0.08532696, 0.29203892, 0
746, 227310722, 0.89842254, 0.2731559, 0.3073474, 0.15414506, -0.036929034, -0.21914439, 0.28867912, 0
747, 227327389, 0.8946265, 0.27881974, 0.3134309, 0.15383136, 0.113145165, -0.16468501, 0.43674374, 0
748, 227344056, 0.89098907, 0.2840321, 0.3192636, 0.15341213, 0.003553856, -0.03442122, 0.5862837, 0
749, 227360723, 0.8875655, 0.28891248, 0.32465076, 0.1528367, -0.09559113, 0.07537058, 0.6677723, 0
750, 227377390, 0.8844216, 0.29323792, 0.32956436, 0.15230715, -0.07113031, 0.046271205, 0.6291771, 0
751, 227394057, 0.88142264, 0.29727712, 0.334176, 0.15181236, 0.023602745, -0.1094125, 0.7802477, 0
752, 227410724, 0.87874115, 0.30105123, 0.33810607, 0.15121706, 0.04872292, -0.02957434, 0.79889774, 0
753, 227427391, 0.8762381, 0.30468348, 0.3416011, 0.150611, 0.08723733, 0.13688068, 0.7545624, 0
754, 227444058, 0.87383693, 0.30817723, 0.34478658, 0.15019391, 0.10897307, 0.021093141, 0.6180496, 0
755, 227460725, 0.8716083, 0.31125468, 0.34771246, 0.15005304, 0.18701328, -0.17481686, 0.5400648, 0
756, 227477392, 0.8698507, 0.31361648, 0.35003352, 0.14993699, 0.22568148, -0.25621045, 0.5936594, 0
757, 227494059, 0.86851615, 0.3154958, 0.35175112, 0.14971155, 0.23883745, -0.21816184, 0.57576084, 0
758, 227510726, 0.8672828, 0.3171822, 0.3533961, 0.14942272, 0.21496001, -0.052832652, 0.47571087, 0
759, 227527393, 0.8660368, 0.31856647, 0.35526296, 0.14927809, 0.2488638, 0.056440823, 0.3183546, 0
760, 227544060, 0.8647589, 0.3197304, 0.3573079, 0.149317, 0.29516563, -0.034839187, 0.1700697, 0
761, 227560727, 0.86361694, 0.32048875, 0.35930032, 0.1495195, 0.22576508, -0.16536494, 0.104317665, 0
762, 227577394, 0.86267143, 0.32080108, 0.3611569, 0.14983495, 0.108499, -0.17505467, 0.19230747, 0
763, 227594061, 0.86189175, 0.32103416, 0.36270475, 0.15008369, 0.09761906, -0.100484274, 0.31029892, 0
764, 227610728, 0.86127764, 0.32132736, 0.3638219, 0.15027758, 0.09048565, -0.019467307, 0.23587513, 0
765, 227627395, 0.86076176, 0.32174787, 0.36459872, 0.1504506, 0.07133304, -0.0069284546, 0.0922451, 0
766, 227644062, 0.8602696, 0.32217553, 0.3653217, 0.1505964, 0.077096544, -0.033403564, 0.01936245, 0
767, 227660729, 0.85982037, 0.3225384, 0.36599728, 0.15074547, 0.09380593, -0.04175803, 0.023730278, 0
768, 227677396, 0.8593776, 0.32276794, 0.36673996, 0.15097335, 0.066886924, 0.0699533, -0.0044488907, 0
769, 227694063, 0.8589146, 0.32293254, 0.36755833, 0.15126517, 0.08350198, 0.0797331, 0.021596909, 0
770, 227710730, 0.8584605, 0.32316938, 0.36827654, 0.15159036, 0.057285476, 0.105399325, 0.024454117, 0
771, 227727397, 0.8579806, 0.3235127, 0.3689424, 0.15195592, 0.018594937, 0.0312185, 0.045820236, 0
772, 227744064, 0.8575081, 0.32386985, 0.36958078, 0.15231034, -0.02031688, -0.03499341, 0.08578777, 0
773, 227760731, 0.85707104, 0.32414475, 0.37021917, 0.15263437, -0.06370231, -0.06615313, 0.08650017, 0
774, 227777398, 0.85673606, 0.32436278, 0.3707264, 0.15282086, -0.03915835, -0.060162537, 0.06382275, 0
775, 227794065, 0.856541, 0.3245238, 0.37100518, 0.15289578, -0.023294967, -0.02202139, 0.050107002, 0
776, 227810732, 0.8563732, 0.32467923, 0.3712392, 0.1529373, -0.06266722, 0.020410085, 0.037044525, 0
777, 227827399, 0.8561634, 0.3249637, 0.37146267, 0.15296592, -0.04420952, 0.018907184, 0.123158455, 0
778, 227844066, 0.85598016, 0.32533428, 0.3715551, 0.15297864, -0.047823504, 0.013056956, 0.15995312, 0
779, 227860733, 0.8558616, 0.32571772, 0.37150872, 0.15293844, 0.02562643, 0.014892221, 0.15808105, 0
780, 227877400, 0.8558033, 0.32606244, 0.37137392, 0.15285727, 0.036543027, 0.020176962, 0.13852787, 0
781, 227894067, 0.8557659, 0.3263193, 0.37127525, 0.15275936, 0.069524825, 0.006070165, 0.07231712, 0
782, 227910734, 0.8557141, 0.32650334, 0.3712604, 0.15269147, 0.05716992, 0.0032836287, 0.05061531, 0
783, 227927401, 0.8556668, 0.32661715, 0.37129185, 0.15263663, 0.102117926, -0.007186165, 0.042001724, 0
784, 227944068, 0.8556621, 0.32659525, 0.37132514, 0.15262902, 0.13151324, 9.190853E-4, 0.05065155, 0
785, 227960735, 0.85571516, 0.3264828, 0.37128276, 0.1526753, 0.116269425, 0.026443819, 0.134696, 0
786, 227977402, 0.8557732, 0.3264098, 0.3711682, 0.15278447, 0.07525726, -0.048382062, 0.21298695, 0
787, 227994069, 0.85601723, 0.326097, 0.37080613, 0.15296483, 0.01848631, -0.16332337, 0.22736645, 0
788, 228010736, 0.85649335, 0.3255599, 0.37014973, 0.15303317, 0.011267735, -0.1534651, 0.2788763, 0
789, 228027403, 0.85731, 0.32471287, 0.3689805, 0.15308346, -0.0019794307, -0.14273426, 0.312315, 0
790, 228044070, 0.8584054, 0.32360187, 0.36737522, 0.15315838, -0.029576128, -0.1246905, 0.42584038, 0
791, 228060737, 0.85973626, 0.32253298, 0.36520618, 0.15313596, -0.036445353, -0.20586124, 0.59221077, 0
792, 228077404, 0.8614413, 0.32127202, 0.36232683, 0.15304403, -0.06184313, -0.1668504, 0.62245464, 0
793, 228094071, 0.8635234, 0.319786, 0.35876003, 0.15282464, -0.087320924, -0.17560989, 0.68972015, 0
794, 228110738, 0.8659411, 0.31810707, 0.35454577, 0.15248449, -0.016498609, -0.23010883, 0.8497286, 0
795, 228127405, 0.8688554, 0.3161778, 0.3492866, 0.15205562, 0.15553574, -0.20020436, 0.9866438, 0
796, 228144072, 0.87233037, 0.31380624, 0.34291202, 0.15158214, 0.3223837, -0.19088319, 0.95956135, 0
797, 228160739, 0.87636, 0.31092894, 0.3354097, 0.15105303, 0.3997442, -0.19204949, 0.9983864, 0
798, 228177406, 0.8808029, 0.3072555, 0.32724467, 0.15063639, 0.27127767, -0.15392108, 0.9608488, 0
799, 228194073, 0.88549054, 0.30272952, 0.31878862, 0.15045099, 0.272081, -0.07378632, 1.0523233, 0
800, 228210740, 0.8906343, 0.29757446, 0.3092466, 0.15028878, 0.3685056, -0.08801851, 0.996645, 0
801, 228227407, 0.896059, 0.29191983, 0.29889232, 0.15008286, 0.102784224, -0.022193495, 0.72247696, 0
802, 228244074, 0.90144217, 0.28575808, 0.28865048, 0.14975111, 0.14477873, 0.020280896, 0.6200514, 0
803, 228260741, 0.9068291, 0.27917013, 0.27817717, 0.1494742, 0.16120648, 4.8323502E-4, 0.57422733, 0
804, 228277408, 0.9121517, 0.27224123, 0.26757333, 0.14922747, 0.1266221, 0.1113023, 0.44757175, 0
805, 228294075, 0.9173813, 0.2649793, 0.25690648, 0.14898586, 0.08322706, 0.15250133, 0.34869957, 0
806, 228310742, 0.9224026, 0.2572229, 0.24660762, 0.1489792, 0.11082376, 0.21819782, 0.14881706, 0
807, 228327409, 0.9272417, 0.24931721, 0.23643981, 0.14886335, 0.15732764, 0.19249159, -0.011210442, 0
808, 228344076, 0.93172437, 0.24136111, 0.22695942, 0.14874166, 0.06095891, 0.16144319, 0.05340767, 0
809, 228360743, 0.93611085, 0.23302266, 0.21751326, 0.1486105, -0.128011, 0.18828799, -0.048477173, 0
810, 228377410, 0.94022197, 0.22487816, 0.20840254, 0.14826053, -0.2666847, 0.08019935, -0.29725933, 0
811, 228394077, 0.9439884, 0.21723813, 0.19969626, 0.14769854, -0.26369914, 0.14786388, -0.39615154, 0
812, 228410744, 0.9474863, 0.20991555, 0.1912796, 0.14702882, -0.27379376, 0.17986132, -0.5415497, 0
813, 228427411, 0.95069355, 0.202917, 0.18333088, 0.14627524, -0.28794783, 0.3414443, -0.7739582, 0
814, 228444078, 0.9534888, 0.19647962, 0.17622931, 0.14559555, -0.21284993, 0.19928817, -0.7436094, 0
815, 228460745, 0.95602417, 0.19041874, 0.16962501, 0.14486529, -0.20667875, 0.1519963, -0.6819658, 0
816, 228477412, 0.9583678, 0.18502188, 0.16309287, 0.14387153, -0.24677461, -0.01371889, -0.6326227, 0
817, 228494079, 0.96044713, 0.1800222, 0.15722346, 0.14287896, -0.35767192, 0.12022706, -0.74825287, 0
818, 228510746, 0.9623645, 0.17514604, 0.15192878, 0.14176077, -0.20505224, 0.023825811, -0.6275759, 0
819, 228527413, 0.9639932, 0.17090091, 0.14744794, 0.14060302, -0.16494441, 0.115349114, -0.6040859, 0
820, 228544080, 0.96547514, 0.16672425, 0.14345513, 0.1395759, 0.011066909, 0.20343322, -0.48963737, 0
821, 228560747, 0.9668199, 0.1628809, 0.13968508, 0.13862583, -0.0021741106, 0.073718034, -0.49635696, 0
822, 228577414, 0.9679074, 0.15961154, 0.13663083, 0.13788226, -0.09979284, 0.09986078, -0.5862675, 0
823, 228594081, 0.9689249, 0.15647829, 0.13376068, 0.13714021, -0.1355073, 0.064819984, -0.57473946, 0
824, 228610748, 0.9698477, 0.15379927, 0.13095082, 0.13635729, -0.20884168, -0.007751541, -0.46610355, 0
825, 228627415, 0.9706555, 0.15157135, 0.12830177, 0.13562016, -0.17865849, 2.9615467E-5, -0.5867615, 0
826, 228644082, 0.97135293, 0.1495813, 0.12594835, 0.13504057, -0.02824209, 0.04721264, -0.5576019, 0
827, 228660749, 0.97189534, 0.1481194, 0.12411732, 0.13444349, 0.06948403, -0.02109247, -0.539176, 0
828, 228677416, 0.9723459, 0.14706485, 0.122310586, 0.13399962, 0.13387935, 0.025942478, -0.33768654, 0
829, 228694083, 0.97275734, 0.1462318, 0.120389715, 0.1336634, 0.06918676, 0.06331954, -0.39702797, 0
830, 228710750, 0.9731084, 0.14567477, 0.11852965, 0.1333789, -0.0038587276, -0.0075348453, -0.30410862, 0
831, 228727417, 0.9734247, 0.14519219, 0.11659587, 0.1333011, 0.034686193, 0.0011792544, -0.28775787, 0
832, 228744084, 0.9736331, 0.14521511, 0.11450177, 0.13356946, 0.14190178, -0.06186291, -0.20269775, 0
833, 228760751, 0.9738062, 0.14523727, 0.11295093, 0.13360402, 0.010986555, -0.14222151, -0.31003857, 0
834, 228777418, 0.9738768, 0.14556804, 0.111838475, 0.1336644, 0.14317665, 0.0070578684, -0.17932224, 0
835, 228794085, 0.97393477, 0.14596489, 0.110688135, 0.1337666, 0.13158599, 0.01371252, -0.101864815, 0
836, 228810752, 0.97395253, 0.14645872, 0.109749176, 0.13387085, 0.008431914, -0.06986177, -0.1414938, 0
837, 228827419, 0.97391015, 0.14712659, 0.10910473, 0.13397416, -0.057680313, -0.023067432, -0.14429474, 0
838, 228844086, 0.9738591, 0.14786738, 0.10844089, 0.13406885, -0.0136556355, -0.038305093, -0.014414787, 0
839, 228860753, 0.97381175, 0.14874274, 0.10762827, 0.13409953, 0.04185012, -0.08579042, 0.046157837, 0
840, 228877420, 0.9737435, 0.14954388, 0.10709295, 0.13413185, 0.010660003, -0.026848711, -0.07754707, 0
841, 228894087, 0.97364265, 0.15020235, 0.10702597, 0.13418256, 0.025039487, -0.025845138, -0.04031658, 0
842, 228910754, 0.9735618, 0.15063845, 0.10708511, 0.13423233, 0.001600688, 0.008264615, 0.07938099, 0
843, 228927421, 0.97350377, 0.1510794, 0.10704468, 0.13419005, -0.01867842, -0.044700466, 0.119342804, 0
844, 228944088, 0.9734213, 0.15175876, 0.1069837, 0.13407019, -0.0070361877, -0.08564346, 0.05251789, 0
845, 228960755, 0.9732944, 0.1525049, 0.10720181, 0.13397044, -0.06045612, -0.019014135, -0.13662624, 0
846, 228977422, 0.9731094, 0.15334514, 0.10774886, 0.13391648, -0.026295405, 0.03377292, -0.195508, 0
847, 228994089, 0.97286564, 0.15441714, 0.108434305, 0.13390264, 0.053595614, 0.012038296, -0.20109558, 0
848, 229010756, 0.9725544, 0.15573727, 0.10934304, 0.13389656, 0.026262438, -0.04229692, -0.2489891, 0
849, 229027423, 0.9721806, 0.15720844, 0.11056962, 0.13388352, 0.017172389, -0.06778723, -0.1865015, 0
850, 229044090, 0.97173953, 0.15899296, 0.11198236, 0.13380466, 0.07637404, -0.02694985, -0.10347748, 0
851, 229060757, 0.9712144, 0.16102059, 0.11375492, 0.1336975, 0.07238825, 0.04759485, -0.16866302, 0
852, 229077424, 0.97057736, 0.1633245, 0.11597815, 0.1336184, 0.07761923, 0.049385745, -0.16648006, 0
853, 229094091, 0.96982336, 0.16573519, 0.1187665, 0.1336759, -0.005808878, 0.02907613, -0.28343487, 0
854, 229110758, 0.9689818, 0.16806217, 0.122113764, 0.13385664, 0.048869096, 0.05538215, -0.318882, 0
855, 229127425, 0.9680913, 0.17038333, 0.12566671, 0.1340781, 0.14601688, 0.03503465, -0.20112991, 0
856, 229144092, 0.9671884, 0.17258781, 0.12925467, 0.13436303, 0.20080593, 0.05082517, -0.2551241, 0
857, 229160759, 0.9662465, 0.17460799, 0.13313602, 0.13474011, 0.12944585, 0.15122965, -0.39612675, 0
858, 229177426, 0.9652437, 0.17659327, 0.13721529, 0.13524729, -0.014248504, 0.10658103, -0.36785507, 0
859, 229194093, 0.96414167, 0.17888619, 0.14142437, 0.13575658, -0.071194015, -0.028670007, -0.2670288, 0
860, 229210760, 0.96293867, 0.18168257, 0.14568147, 0.13608001, -0.033796277, -0.025364362, -0.19779491, 0
861, 229227427, 0.96166635, 0.18475024, 0.1498941, 0.13637099, -0.043221593, 0.064027295, -0.31327248, 0
862, 229244094, 0.9603269, 0.18756235, 0.15449977, 0.13683029, 0.014766718, 0.04785703, -0.40974426, 0
863, 229260761, 0.9588236, 0.1905629, 0.15964216, 0.1373231, 0.07391048, 0.070656024, -0.35795784, 0
864, 229277428, 0.9571725, 0.19370253, 0.16520554, 0.13786747, 0.02916721, 0.17394795, -0.36036968, 0
865, 229294095, 0.9553104, 0.19719742, 0.17121921, 0.13848987, -0.064038806, 0.18735045, -0.37361526, 0
866, 229310762, 0.95322335, 0.20073785, 0.1780002, 0.13923222, -0.066231474, 0.26106045, -0.56583786, 0
867, 229327429, 0.9508069, 0.20426846, 0.18597628, 0.1401913, 0.0036825994, 0.16092184, -0.59338474, 0
868, 229344096, 0.94812834, 0.20773314, 0.19468066, 0.14141884, 0.10807857, 2.0216747E-4, -0.4167137, 0
869, 229360763, 0.94537205, 0.2113559, 0.20307791, 0.14268726, 0.20885698, -0.08693581, -0.14789009, 0
870, 229377430, 0.9426076, 0.2156428, 0.21052226, 0.14376962, -0.1441663, -0.07890432, 0.004442215, 0
871, 229394097, 0.9398278, 0.21989922, 0.21770456, 0.1448207, -0.36924854, 0.15745348, -0.11811733, 0
872, 229410764, 0.9369122, 0.2244345, 0.22481021, 0.14589468, -0.14156438, 0.121019974, -0.024780273, 0
873, 229427431, 0.933861, 0.22915837, 0.23190424, 0.14700617, 0.050786614, -0.021571236, -0.105563164, 0
874, 229444098, 0.9307003, 0.23371409, 0.23917152, 0.14822896, 0.11478239, -0.050798908, -0.1550293, 0
875, 229460765, 0.92745036, 0.23792861, 0.24676281, 0.1494465, 0.098690584, 0.13057783, -0.2048235, 0
876, 229477432, 0.92399836, 0.24194388, 0.25482568, 0.15084445, -0.10539016, 0.35571885, -0.31031227, 0
877, 229494099, 0.92028487, 0.24604875, 0.263278, 0.15238307, -0.015485648, 0.25874755, -0.023751259, 0
878, 229510766, 0.9163395, 0.25076088, 0.27153513, 0.15397955, 0.102826685, 0.11192456, 0.24691105, 0
879, 229527433, 0.91280776, 0.25538063, 0.27809638, 0.15564477, 0.09216959, -0.179767, 0.4014101, 0
880, 229544100, 0.909587, 0.25945505, 0.28388184, 0.15730807, -0.2870282, -0.28459814, -0.09856129, 0
881, 229560767, 0.9061438, 0.26337713, 0.29043788, 0.15868919, -0.19471689, -0.32131574, -0.28457642, 0
882, 229577434, 0.9024484, 0.26725653, 0.29767653, 0.15984273, -0.044555742, -0.19426562, 0.0047864914, 0
883, 229594101, 0.8989376, 0.27113596, 0.3042915, 0.16063523, 0.0019255641, -0.025488747, 0.44600868, 0
884, 229610768, 0.8959621, 0.27497736, 0.30927753, 0.16120383, -0.08369309, 0.14868104, 0.5814266, 0
885, 229627435, 0.8932311, 0.2790297, 0.31322992, 0.16176438, -0.19476628, 0.039416734, 0.38568306, 0
886, 229644102, 0.8903027, 0.2833245, 0.31731996, 0.16246991, -0.067760855, -0.0030399996, 0.19756413, 0
887, 229660769, 0.88726395, 0.2876402, 0.32153127, 0.16322824, 0.205222, -0.14427829, 0.2800274, 0
888, 229677436, 0.8844667, 0.29129437, 0.32552317, 0.16401549, 0.20862229, -0.2405565, 0.31611538, 0
889, 229694103, 0.8820074, 0.294159, 0.32924852, 0.16470835, 0.07472463, -0.23025724, 0.33285904, 0
890, 229710770, 0.87967, 0.29662475, 0.3329708, 0.16530249, 0.046117205, -0.0793167, 0.43603134, 0
891, 229727437, 0.8774614, 0.2990115, 0.3363653, 0.16586757, 0.0472113, 0.068803996, 0.6151352, 0
892, 229744104, 0.8753858, 0.3011732, 0.3394648, 0.1666073, 0.08382898, 0.05138563, 0.6843796, 0
893, 229760771, 0.873509, 0.30317676, 0.34216902, 0.16729128, 0.1429285, -0.07315333, 0.5882368, 0
894, 229777438, 0.8718021, 0.30480388, 0.34473732, 0.16796416, 0.057196293, -0.124008566, 0.43786144, 0
895, 229794105, 0.8702271, 0.30602467, 0.3473558, 0.16851693, 0.056194734, -0.13671215, 0.36023617, 0
896, 229810772, 0.8688128, 0.3068991, 0.34990084, 0.16895778, 0.028434424, -0.13313349, 0.37146473, 0
897, 229827439, 0.86759055, 0.30756032, 0.3521116, 0.16944292, -0.0100562945, -0.05769741, 0.3387804, 0
898, 229844106, 0.8664764, 0.3082804, 0.35404998, 0.1697962, -0.02198451, -0.12717083, 0.2924595, 0
899, 229860773, 0.8653901, 0.30895638, 0.35600513, 0.17001848, -0.058236748, -0.015290521, 0.21194744, 0
900, 229877440, 0.8644318, 0.30962723, 0.3577153, 0.17008361, 6.98925E-4, -0.01090922, 0.23138809, 0
901, 229894107, 0.8636502, 0.3101013, 0.35916042, 0.17014505, -0.067777395, -0.024742438, 0.17666817, 0
902, 229910774, 0.8629051, 0.31055444, 0.3605333, 0.17019542, -0.05611941, -0.02920018, 0.16845608, 0
903, 229927441, 0.8622195, 0.3110758, 0.36171034, 0.17022109, -0.011241808, 0.018136736, 0.10533905, 0
904, 229944108, 0.861553, 0.31164363, 0.3627916, 0.17025557, 0.02147736, 0.008278026, 0.055809975, 0
905, 229960775, 0.86088926, 0.3122054, 0.36385277, 0.17031913, 0.017875671, -0.012612389, -0.037905693, 0
906, 229977442, 0.8602357, 0.31266394, 0.3649801, 0.17036834, 0.0133435, -0.030941345, -0.05384636, 0
907, 229994109, 0.8596406, 0.31299967, 0.36607075, 0.1704157, -0.041801393, -0.027454097, 0.020785332, 0
908, 230010776, 0.8590579, 0.3133496, 0.3671336, 0.17042473, -0.09012065, 0.005947456, 0.047117233, 0
909, 230027443, 0.85843337, 0.3138105, 0.36820143, 0.17042078, -0.06805344, 0.036051076, 0.027363777, 0
910, 230044110, 0.857858, 0.31432226, 0.36912987, 0.17036526, -0.032962125, 0.010046237, 0.058825493, 0
911, 230060777, 0.85733163, 0.31482235, 0.36995187, 0.17030878, -0.03867534, -0.062660515, 0.11371803, 0
912, 230077444, 0.85689783, 0.31524652, 0.37062123, 0.17025189, 0.009104353, -0.078944325, 0.09436035, 0
913, 230094111, 0.85652274, 0.31554487, 0.37125728, 0.17020088, 0.020453895, -0.06103647, 0.11019039, 0
914, 230110778, 0.8562351, 0.3157104, 0.37180734, 0.17014031, 0.04885792, -0.044972148, 0.12646675, 0
915, 230127445, 0.8560355, 0.3157842, 0.3722345, 0.17007376, 0.06431049, 0.0028605189, 0.16469765, 0
916, 230144112, 0.85584515, 0.3158334, 0.37264556, 0.1700399, 0.06441397, 0.06307558, 0.19068432, 0
917, 230160779, 0.8557309, 0.31584582, 0.37288213, 0.1700741, 0.07693964, 0.06366543, 0.1762104, 0
918, 230177446, 0.85569876, 0.31585702, 0.3729101, 0.17015333, 0.039484456, 0.045791324, 0.09440708, 0
919, 230194113, 0.8556348, 0.3160344, 0.3728862, 0.17019802, 0.00905831, 0.02718387, 0.052461624, 0
920, 230210780, 0.85556763, 0.3162374, 0.37286434, 0.17020682, 0.008553618, 0.00901249, 0.04305744, 0
921, 230227447, 0.85555625, 0.316362, 0.37279484, 0.17018472, 0.0075323866, -0.0346948, 0.011340141, 0
922, 230244114, 0.8555985, 0.3164395, 0.37265977, 0.1701235, -0.0039666845, -0.055828173, -0.025271416, 0
923, 230260781, 0.8556116, 0.31652078, 0.37257633, 0.17008957, -0.012641222, -0.013936927, -0.020413399, 0
924, 230277448, 0.8555674, 0.31659535, 0.37261268, 0.17009342, -0.029810593, 0.03036513, -0.022418976, 0
925, 230294115, 0.8554843, 0.31669232, 0.37270522, 0.17012852, -0.028440459, 0.056390308, -0.01949215, 0
926, 230310782, 0.8553891, 0.31681156, 0.37279454, 0.17018862, -0.0430705, 0.018104773, 0.045077324, 0
927, 230327449, 0.8553279, 0.31697476, 0.37278274, 0.17021866, -0.033115458, -0.049109373, 0.1150713, 0
928, 230344116, 0.8553631, 0.31710726, 0.37259895, 0.17019771, -0.03262775, -0.06471326, 0.109550476, 0
929, 230360783, 0.85546076, 0.3171354, 0.37236112, 0.1701742, 0.038900644, -0.029717611, 0.05923748, 0
930, 230377450, 0.85567033, 0.31702372, 0.37196374, 0.17019738, 0.09789555, -0.009101224, 0.08520126, 0
931, 230394117, 0.85605496, 0.31660718, 0.37137088, 0.17033406, 0.04741425, -0.054989997, 0.14010525, 0
932, 230410784, 0.8564833, 0.3161585, 0.37069014, 0.170497, -0.09359918, -0.11345026, 0.28693867, 0
933, 230427451, 0.8571019, 0.31562924, 0.36963493, 0.1706605, -0.08173936, -0.2575553, 0.36700726, 0
934, 230444118, 0.85817987, 0.31506196, 0.36766848, 0.1705377, -0.12512322, -0.3366981, 0.52899456, 0
935, 230460785, 0.85974157, 0.31426543, 0.36487255, 0.17014648, -0.15387727, -0.25296324, 0.61104965, 0
936, 230477452, 0.86163825, 0.3133138, 0.36143062, 0.16965254, -0.023749145, -0.1385588, 0.71055317, 0
937, 230494119, 0.8638471, 0.3123443, 0.35721612, 0.16913357, 0.12195269, -0.120351, 0.8834505, 0
938, 230510786, 0.86646175, 0.3107952, 0.35235626, 0.16880646, 0.24581017, -0.00694343, 0.8176384, 0
939, 230527453, 0.86969095, 0.3085681, 0.34639847, 0.16861683, 0.29382566, 0.05724368, 0.7432413, 0
940, 230544120, 0.8732772, 0.3058226, 0.33981374, 0.168483, 0.21010353, -0.012698665, 0.58666325, 0
941, 230560787, 0.8770783, 0.30273658, 0.33273003, 0.16844955, 0.14067169, -0.006002217, 0.69864655, 0
942, 230577454, 0.88111985, 0.29942098, 0.32492244, 0.1685241, 0.122947775, -0.045281265, 0.7415323, 0
943, 230594121, 0.88557607, 0.2960889, 0.3157622, 0.16846575, 0.13769114, -0.196969, 0.7772455, 0
944, 230610788, 0.8903172, 0.29272744, 0.30557922, 0.16812946, 0.08452612, -0.26818985, 0.5911722, 0
945, 230627455, 0.8952216, 0.28904793, 0.29480177, 0.16769487, 0.104948275, -0.16876413, 0.45876694, 0
946, 230644122, 0.8999915, 0.2851476, 0.2840903, 0.16732855, 0.19989903, -0.0024769707, 0.40413094, 0
947, 230660789, 0.90466833, 0.28065333, 0.27365825, 0.16709346, 0.24731217, 0.077258594, 0.31616402, 0
948, 230677456, 0.90927696, 0.2755737, 0.26341698, 0.16699156, 0.25078422, 0.07362651, 0.3464012, 0
949, 230694123, 0.913932, 0.2698955, 0.2529391, 0.1670527, 0.26178285, 0.14561243, 0.36936378, 0
950, 230710790, 0.91857266, 0.26376718, 0.24232325, 0.16712551, 0.0903569, 0.17048876, 0.21135426, 0
951, 230727457, 0.9229096, 0.2574722, 0.23235251, 0.1672073, -0.09965057, 0.11988319, 0.117990494, 0
952, 230744124, 0.92691004, 0.25111154, 0.22324471, 0.16716059, -0.104469955, 0.082322724, 0.12223911, 0
953, 230760791, 0.9307302, 0.24465083, 0.21449587, 0.16696946, -0.11325223, 0.11327346, 0.082206726, 0
954, 230777458, 0.9343151, 0.23821913, 0.20624875, 0.16663931, -0.27712545, 0.16099392, 0.087862015, 0
955, 230794125, 0.93771964, 0.23181933, 0.19841617, 0.16605155, -0.29801407, 0.3217574, 0.1969738, 0
956, 230810792, 0.9409554, 0.22571999, 0.19067314, 0.16521904, -0.3626006, 0.4235537, 0.19667149, 0
957, 230827459, 0.94408315, 0.21965884, 0.18296243, 0.16426195, -0.2959021, 0.32143578, -0.04446411, 0
958, 230844126, 0.94697493, 0.21349125, 0.17597136, 0.16338365, -0.29076532, 0.06817905, -0.46930313, 0
959, 230860793, 0.9495841, 0.20716083, 0.1702693, 0.1624285, -0.20182103, -0.02932356, -0.5751257, 0
960, 230877460, 0.95200914, 0.20083435, 0.16535492, 0.16125102, -0.09086171, 0.06111414, -0.39391136, 0
961, 230894127, 0.9543188, 0.1948768, 0.16034861, 0.15995887, -0.21387921, 0.16908386, -0.36469364, 0
962, 230910794, 0.9564045, 0.18925019, 0.15571742, 0.1588297, -0.25145173, 0.14882655, -0.6570568, 0
963, 230927461, 0.9583667, 0.18355589, 0.1516387, 0.15762678, -0.09314779, -0.037185293, -0.744174, 0
964, 230944128, 0.960072, 0.1783623, 0.14836894, 0.15631789, -0.0069472296, -0.049918264, -0.7215347, 0
965, 230960795, 0.96162254, 0.17373309, 0.14523396, 0.15493953, -0.059420586, 0.026192477, -0.5022497, 0
966, 230977462, 0.9631169, 0.1695899, 0.1417101, 0.15350395, -0.13992135, 0.095200874, -0.6027117, 0
967, 230994129, 0.96445054, 0.16606297, 0.13827576, 0.15211211, -0.14109144, -0.04701796, -0.70727444, 0
968, 231010796, 0.9656315, 0.16319966, 0.135009, 0.15064682, -0.122026786, -0.04130162, -0.64264584, 0
969, 231027463, 0.96671975, 0.16061755, 0.131872, 0.14921422, -0.080564685, 0.008833903, -0.6450691, 0
970, 231044130, 0.967693, 0.15847962, 0.12878211, 0.14788476, 0.024708798, 0.054163672, -0.56763935, 0
971, 231060797, 0.9685625, 0.15672866, 0.1257215, 0.14668694, 0.029891394, 0.06960573, -0.5147877, 0
972, 231077464, 0.9693226, 0.15539913, 0.122899726, 0.1454667, -0.014899821, -0.029042156, -0.5417738, 0
973, 231094131, 0.9699492, 0.15439989, 0.120487265, 0.1443683, -0.109903336, 0.003949139, -0.47691536, 0
974, 231110798, 0.97051686, 0.15357511, 0.11822821, 0.14329623, -0.059337437, -0.06605769, -0.37570763, 0
975, 231127465, 0.97097605, 0.15304437, 0.11620936, 0.14240211, 0.012012815, 0.022715958, -0.38152695, 0
976, 231144132, 0.9713458, 0.15254901, 0.11435848, 0.14191002, 0.024177844, 0.08975431, -0.45039463, 0
977, 231160799, 0.97161686, 0.15231687, 0.112899676, 0.14147146, 0.13536581, -0.021579953, -0.37743664, 0
978, 231177466, 0.97180223, 0.15252797, 0.11151299, 0.14106973, 0.06567839, -0.044202592, -0.26599216, 0
979, 231194133, 0.97196114, 0.15280028, 0.11020922, 0.14070353, 0.037335046, -0.0050663683, -0.2345829, 0
980, 231210800, 0.9720751, 0.15344162, 0.10874451, 0.14035815, 0.016536495, -0.015935691, -0.09111118, 0
981, 231227467, 0.9721542, 0.15413557, 0.10738335, 0.14009807, 0.014015492, -0.01927531, -0.14760017, 0
982, 231244134, 0.9721556, 0.15507928, 0.10622991, 0.13992701, 0.099643365, -0.0055293753, -0.0622797, 0
983, 231260801, 0.972108, 0.15598923, 0.10544396, 0.13983957, 0.109956525, 0.042100787, -0.16321087, 0
984, 231277468, 0.9720211, 0.1569508, 0.10488729, 0.13978612, 0.08711105, -0.05155293, -0.10037422, 0
985, 231294135, 0.97184163, 0.15831968, 0.10457658, 0.13972326, -0.015348299, -0.058312852, -0.12230587, 0
986, 231310802, 0.97162265, 0.15961069, 0.10462252, 0.13974252, 0.025636489, 0.013063662, -0.122914314, 0
987, 231327469, 0.9713669, 0.16087858, 0.105025806, 0.13976467, 0.0555176, 0.0036182278, -0.015716553, 0
988, 231344136, 0.97106886, 0.1621782, 0.10570223, 0.13982378, 0.0821181, -0.015973689, 0.03143406, 0
989, 231360803, 0.97070026, 0.16356173, 0.10682114, 0.13992144, 0.051194973, 0.029856414, -0.0982008, 0
990, 231377470, 0.9702585, 0.16506778, 0.10832535, 0.1400609, 0.04917486, 0.052258782, -0.074337006, 0
991, 231394137, 0.96972436, 0.16686504, 0.11013103, 0.140221, 0.018802803, 0.018228041, -0.0843277, 0
992, 231410804, 0.9690716, 0.16904654, 0.11230368, 0.14039728, -0.014839137, -0.007041664, -0.11683273, 0
993, 231427471, 0.9683676, 0.17114444, 0.11488174, 0.14062744, -0.021466296, -0.01873262, -0.21073532, 0
994, 231444138, 0.96759266, 0.17333828, 0.11780322, 0.14085737, 0.033076566, -0.07615835, -0.13466644, 0
995, 231460805, 0.9667875, 0.1756385, 0.12075788, 0.14103436, 0.041299272, 0.0087149935, -0.006714821, 0
996, 231477472, 0.9660356, 0.17770875, 0.123526566, 0.14119531, -0.018193731, 0.10258429, 0.0103702545, 0
997, 231494139, 0.9653153, 0.17947318, 0.12627302, 0.14146091, -0.014883057, 0.07692947, -0.1604929, 0
998, 231510806, 0.96451515, 0.18134825, 0.12933104, 0.14176339, 0.090230055, -0.023837658, -0.28333664, 0
999, 231527473, 0.9636505, 0.18336663, 0.13254255, 0.14208065, 0.09351536, -0.009029029, -0.34776402, 0
1000, 231544140, 0.9626902, 0.18553667, 0.13607866, 0.1424311, 0.08076596, 0.014951787, -0.4382391, 0
1001, 231560807, 0.96164227, 0.18786697, 0.13984638, 0.14280637, 0.043170188, 0.09894326, -0.4387827, 0
1002, 231577474, 0.9605469, 0.19020052, 0.14379603, 0.1431654, 0.018132154, 0.015906077, -0.30657196, 0
1003, 231594141, 0.95932573, 0.19290957, 0.14792426, 0.14352238, -0.028526735, -0.034830917, -0.13458633, 0
1004, 231610808, 0.95807827, 0.19542404, 0.15220627, 0.14397566, 0.008283725, -0.031806342, -0.07177639, 0
1005, 231627475, 0.9567917, 0.19797681, 0.15660883, 0.14432156, -0.02318053, 0.04113812, -0.12567806, 0
1006, 231644142, 0.9554593, 0.20048511, 0.16123898, 0.14458649, 0.012598084, 0.07100962, -0.2626505, 0
1007, 231660809, 0.95400447, 0.20295219, 0.16634311, 0.14496948, 0.05685242, -7.5558556E-4, -0.32311344, 0
1008, 231677476, 0.9523373, 0.20567544, 0.17204142, 0.14544111, 0.16230963, -0.06686446, -0.17128563, 0
1009, 231694143, 0.95048726, 0.20858471, 0.17823386, 0.14594336, 0.014752973, 0.09344496, -0.11995506, 0
1010, 231710810, 0.94853383, 0.21142837, 0.18474868, 0.14645702, 0.054730613, 0.25309065, -0.101659775, 0
1011, 231727477, 0.94652086, 0.21407695, 0.19144714, 0.14702858, 0.053345837, 0.31022078, -0.36674595, 0
1012, 231744144, 0.94433177, 0.2167415, 0.1985475, 0.1477827, 0.15127927, 0.016558288, -0.32545567, 0
1013, 231760811, 0.94202054, 0.21931107, 0.20586778, 0.14872308, 0.12585132, -0.040694557, -0.27367878, 0
1014, 231777478, 0.93960065, 0.22191924, 0.21321815, 0.14980294, 0.05022649, -0.04070372, -0.20469952, 0
1015, 231794145, 0.9369912, 0.22511035, 0.22059135, 0.15070711, -0.11322764, -0.023681644, -0.04566288, 0
1016, 231810812, 0.9343023, 0.2286127, 0.22775789, 0.15146615, -0.19574393, 0.17449835, -0.113503456, 0
1017, 231827479, 0.931555, 0.23236085, 0.23461206, 0.15221988, -0.069647975, 0.041650075, -0.119262695, 0
1018, 231844146, 0.9287826, 0.23598635, 0.24128103, 0.1531572, -0.053500284, -0.055657186, -0.29189205, 0
1019, 231860813, 0.9259169, 0.2394609, 0.24812481, 0.15417795, 0.05565249, -0.16562623, -0.24854374, 0
1020, 231877480, 0.92302984, 0.24290185, 0.25485837, 0.1551188, 0.063068874, 0.013940056, -0.091246605, 0
1021, 231894147, 0.9201464, 0.24626541, 0.2613382, 0.15616147, 0.034292698, 0.29174855, -0.016690254, 0
1022, 231910814, 0.91713065, 0.24983756, 0.26778603, 0.15729989, 0.04704143, 0.3041571, -0.05195999, 0
1023, 231927481, 0.9138974, 0.25354856, 0.27450573, 0.15859108, 0.04897169, -0.006323405, -0.08272362, 0
1024, 231944148, 0.91059273, 0.25703064, 0.28138334, 0.15993673, -0.0064838873, -0.20341802, 0.008431435, 0
1025, 231960815, 0.90740305, 0.26015773, 0.28802863, 0.16117445, -0.02131822, -0.18463624, 0.24985027, 0
1026, 231977482, 0.9044195, 0.26325473, 0.2939737, 0.16217847, -0.110718705, -0.10314922, 0.29774952, 0
1027, 231994149, 0.9014773, 0.26657784, 0.29950207, 0.16301394, -0.12298711, 0.02515817, 0.20380974, 0
1028, 232010816, 0.8985172, 0.26997226, 0.30488476, 0.1637901, -0.07508158, -0.01004579, 0.21736336, 0
1029, 232027483, 0.8956817, 0.27310935, 0.3100218, 0.16447602, -0.0770476, 0.027280875, 0.23534489, 0
1030, 232044150, 0.893082, 0.27613208, 0.31449798, 0.16506627, -0.02151245, 0.024493666, 0.39544868, 0
1031, 232060817, 0.8904635, 0.27920246, 0.31884214, 0.16571264, -0.14225213, 0.016037725, 0.21402359, 0
1032, 232077484, 0.88776755, 0.28218615, 0.3233425, 0.1664019, -0.09023084, -0.062097263, 0.25425053, 0
1033, 232094151, 0.8851943, 0.28495544, 0.3276264, 0.16701004, -0.06565827, -0.12771307, 0.3015747, 0
1034, 232110818, 0.8828389, 0.28749928, 0.33151722, 0.16743945, -0.12943189, -0.12775822, 0.2703867, 0
1035, 232127485, 0.8806136, 0.28990275, 0.33515048, 0.16778047, -0.10913892, -0.022204895, 0.27546883, 0
1036, 232144152, 0.87847275, 0.29248866, 0.3383968, 0.16799928, -0.025505511, 0.0774354, 0.3195486, 0
1037, 232160819, 0.87636733, 0.29527745, 0.34131557, 0.16821218, -0.06465403, 0.08934126, 0.27186775, 0
1038, 232177486, 0.8742981, 0.29792047, 0.3441567, 0.16853026, -0.13561067, -0.055306047, 0.20321274, 0
1039, 232194153, 0.8723473, 0.30019656, 0.34698653, 0.16879751, -0.1264804, -0.19271243, 0.24254322, 0
1040, 232210820, 0.87061924, 0.30224574, 0.34954202, 0.1687903, -0.10055647, -0.15077893, 0.30183792, 0
1041, 232227487, 0.86906517, 0.30429193, 0.35173127, 0.16857457, -0.13017082, -0.014459724, 0.32681847, 0
1042, 232244154, 0.8676247, 0.30642122, 0.35358244, 0.16826534, -0.087404296, 0.01179679, 0.28024387, 0
1043, 232260821, 0.8662935, 0.30851197, 0.35517907, 0.16793953, -0.04936328, -0.013882836, 0.2730093, 0
1044, 232277488, 0.8650392, 0.31041324, 0.35673416, 0.16760546, -0.06393119, -0.07233393, 0.25929165, 0
1045, 232294155, 0.8638972, 0.31191263, 0.3583775, 0.16720639, 0.013137868, -0.073352925, 0.24928474, 0
1046, 232310822, 0.8629408, 0.31315976, 0.35982192, 0.16671102, 0.04793079, -0.050496046, 0.26051998, 0
1047, 232327489, 0.8621765, 0.3142327, 0.36094755, 0.16621263, -0.023688797, 0.0047820597, 0.2919817, 0
1048, 232344156, 0.86150736, 0.31521207, 0.36188602, 0.16578637, -0.03248716, 0.0216555, 0.30381012, 0
1049, 232360823, 0.86089355, 0.31629628, 0.36260745, 0.16533247, -0.023728136, -0.010782712, 0.27388382, 0
1050, 232377490, 0.86029375, 0.31734306, 0.3633042, 0.16491935, 0.0023408511, 1.759047E-4, 0.14449215, 0
1051, 232394157, 0.85968715, 0.31830928, 0.3640835, 0.16450144, 0.07504872, -0.035899088, 0.0622015, 0
1052, 232410824, 0.859121, 0.3191123, 0.36489922, 0.16409448, 0.14520988, -0.054577842, 0.045531273, 0
1053, 232427491, 0.8586369, 0.3196646, 0.36569747, 0.16377594, 0.13476713, -0.011216551, 0.1349535, 0
1054, 232444158, 0.8583273, 0.3200148, 0.36622828, 0.16352855, 0.10138145, 0.034544375, 0.15316772, 0
1055, 232460825, 0.85806674, 0.32032573, 0.36665684, 0.16332735, 0.0605624, -0.013161784, 0.12011242, 0
1056, 232477492, 0.8577809, 0.32069194, 0.3670805, 0.16315922, 0.06469158, -0.069275156, 0.14017677, 0
1057, 232494159, 0.8575759, 0.32097524, 0.3673748, 0.16301627, 0.08194767, -0.050448216, 0.14763641, 0
1058, 232510826, 0.8575323, 0.321049, 0.36743268, 0.16296987, 0.09540136, -0.021005748, 0.15047741, 0
1059, 232527493, 0.85760987, 0.32113147, 0.367166, 0.16300061, 0.12217107, -0.047796234, 0.19489956, 0
1060, 232544160, 0.85777754, 0.3211758, 0.36670324, 0.16307224, 0.07965689, -0.0056255977, 0.2702589, 0
1061, 232560827, 0.85800886, 0.3210728, 0.36619604, 0.16319776, 0.13312633, -0.08760009, 0.306468, 0
1062, 232577494, 0.858498, 0.32076082, 0.36526468, 0.16332665, 0.10086492, -0.11330475, 0.37539673, 0
1063, 232594161, 0.85928327, 0.32006544, 0.36396566, 0.1634615, -0.007340389, -0.094772846, 0.3817129, 0
1064, 232610828, 0.860179, 0.31916744, 0.3625607, 0.16362783, 0.03239753, -0.13984759, 0.42152405, 0
1065, 232627495, 0.86143047, 0.31788287, 0.36059827, 0.16388151, 0.10486088, -0.19216236, 0.6044712, 0
1066, 232644162, 0.8631459, 0.31628257, 0.35778397, 0.16411985, 0.047556628, -0.21125305, 0.63799095, 0
1067, 232660829, 0.8651955, 0.31442317, 0.35438517, 0.1642746, 0.08513519, -0.19708747, 0.63832664, 0
1068, 232677496, 0.86766106, 0.31233922, 0.35019395, 0.16423437, 0.10258775, -0.16040318, 0.7609854, 0
1069, 232694163, 0.87046736, 0.30986157, 0.3454213, 0.16418554, 0.055726472, -0.16165932, 0.7486887, 0
1070, 232710830, 0.87356883, 0.30700374, 0.34011215, 0.16416523, 0.1648627, -0.121129714, 0.6887722, 0
1071, 232727497, 0.8771064, 0.3038749, 0.33380738, 0.16406377, 0.2780776, -0.186674, 0.73937607, 0
1072, 232744164, 0.8810812, 0.300388, 0.326503, 0.16388594, 0.17354618, -0.24814118, 0.83027935, 0
1073, 232760831, 0.88533366, 0.29658937, 0.31849638, 0.16364317, 0.18213892, -0.12438496, 0.7757883, 0
1074, 232777498, 0.88978195, 0.2925287, 0.30988398, 0.1633612, 0.1569128, 0.02578535, 0.6934376, 0
1075, 232794165, 0.8943531, 0.28803274, 0.30093724, 0.16311498, 0.20820142, 0.0026707563, 0.5645275, 0
1076, 232810832, 0.89901686, 0.2829865, 0.2917762, 0.1629539, 0.14575593, 0.08048634, 0.46146393, 0
1077, 232827499, 0.9036383, 0.2773136, 0.28281358, 0.16294624, 0.16624379, 0.2044596, 0.32041264, 0
1078, 232844166, 0.9081983, 0.2713946, 0.27377397, 0.16299951, 0.17883338, 0.14363837, 0.31741047, 0
1079, 232860833, 0.91266537, 0.26532212, 0.2646527, 0.16311146, 0.06842045, 0.06925817, 0.2457304, 0
1080, 232877500, 0.9170379, 0.25891984, 0.25558823, 0.16333018, -0.0150692435, 0.11774908, 0.08928299, 0
1081, 232894167, 0.9212236, 0.25255007, 0.24669784, 0.16341913, 0.058671705, 0.11340198, 0.029514313, 0
1082, 232910834, 0.92528224, 0.24592818, 0.2379881, 0.1635047, -0.005341289, 0.14286815, -0.02622509, 0
1083, 232927501, 0.92907095, 0.23933233, 0.22970605, 0.16365384, -0.10903342, 0.15146512, -0.09048557, 0
1084, 232944168, 0.93269575, 0.23290002, 0.22149593, 0.16363356, -0.090109475, 0.1502633, -0.08674908, 0
1085, 232960835, 0.936092, 0.22648658, 0.21373683, 0.16356172, -0.13220568, 0.23128472, -0.34595966, 0
1086, 232977502, 0.93922406, 0.21998447, 0.20668742, 0.16354054, -0.107658595, 0.22684352, -0.35125542, 0
1087, 232994169, 0.9421067, 0.21385318, 0.20001066, 0.16339433, -0.11994756, 0.19632708, -0.335454, 0
1088, 233010836, 0.94477654, 0.20792754, 0.19373655, 0.1631862, -0.16353694, 0.13116902, -0.34681892, 0
1089, 233027503, 0.94726866, 0.20233963, 0.1876306, 0.16289814, -0.20891343, 0.16445614, -0.45728493, 0
1090, 233044170, 0.94949585, 0.19686525, 0.18234499, 0.16264151, -0.30226687, 0.0993837, -0.54617786, 0
1091, 233060837, 0.9514706, 0.19189921, 0.17755978, 0.1623301, -0.25299644, 0.12058792, -0.4838543, 0
1092, 233077504, 0.95330024, 0.18739444, 0.17288862, 0.16190088, -0.12692395, 0.11362058, -0.46835804, 0
1093, 233094171, 0.95504266, 0.18340011, 0.16813761, 0.16120721, -0.1053753, 0.040689416, -0.45472622, 0
1094, 233110838, 0.95662636, 0.17968102, 0.163792, 0.1604771, -0.26719734, 0.03575056, -0.5859642, 0
1095, 233127505, 0.9580576, 0.17607479, 0.16005126, 0.1597096, -0.15448691, 0.030203082, -0.5223799, 0
1096, 233144172, 0.9593679, 0.17282338, 0.15659112, 0.15882272, -0.16384472, 0.023439916, -0.4798069, 0
1097, 233160839, 0.9605778, 0.16971825, 0.15344955, 0.15792228, -0.23385032, -0.018263914, -0.46482944, 0
1098, 233177506, 0.9616316, 0.16719249, 0.15060297, 0.15694016, -0.21441273, 0.045427445, -0.45417595, 0
1099, 233194173, 0.9626264, 0.16487502, 0.14775775, 0.15599541, -0.15901437, 0.04609474, -0.3780203, 0
1100, 233210840, 0.96357054, 0.16296612, 0.14475997, 0.15497905, -0.16432191, -0.023871072, -0.314929, 0
1101, 233227507, 0.9644171, 0.161378, 0.14183325, 0.154079, -0.1941457, 0.009778356, -0.35581112, 0
1102, 233244174, 0.9651837, 0.16016193, 0.13901623, 0.15311179, -0.07169603, -0.107621826, -0.34696293, 0
1103, 233260841, 0.9658829, 0.15928565, 0.13632448, 0.15203321, -0.06557691, -0.08903303, -0.25902557, 0
1104, 233277508, 0.96651113, 0.1585701, 0.1338832, 0.15095432, -0.1099259, 0.0058142426, -0.29381084, 0
1105, 233294175, 0.9670761, 0.15778959, 0.13179602, 0.14998743, -0.06135967, 0.042872913, -0.2731638, 0
1106, 233310842, 0.96763533, 0.15699619, 0.12959409, 0.14912929, 0.11384241, 0.060074918, -0.09144974, 0
1107, 233327509, 0.9681587, 0.15652579, 0.1271168, 0.14835738, 0.023909852, -0.04851315, -0.15961933, 0
1108, 233344176, 0.96859497, 0.1560865, 0.12521988, 0.14758363, -0.0949007, -0.032623615, -0.33469963, 0
1109, 233360843, 0.9689387, 0.15576425, 0.12388355, 0.14679344, -0.054697867, -0.09939096, -0.19796371, 0
1110, 233377510, 0.969218, 0.1555735, 0.12288888, 0.14598614, -0.025843127, -0.03266642, -0.13735008, 0
1111, 233394177, 0.96943843, 0.1556252, 0.12193692, 0.14526403, 0.07813499, -0.045653973, 0.007095337, 0
1112, 233410844, 0.96965593, 0.15556553, 0.121042974, 0.14462209, 0.08397706, -0.007474385, -0.09539509, 0
1113, 233427511, 0.9698497, 0.15554722, 0.12021008, 0.14403492, 0.13945074, -0.035903, 0.010519981, 0
1114, 233444178, 0.9700245, 0.15550078, 0.11927109, 0.14368935, 0.07920338, 0.0072998214, -0.06139183, 0
1115, 233460845, 0.970135, 0.15551299, 0.11881749, 0.14330505, 0.008110838, -0.101384915, -0.1876955, 0
1116, 233477512, 0.97015643, 0.15570262, 0.118725844, 0.14302908, 0.11347764, 0.032923795, -0.19594288, 0
1117, 233494179, 0.9700781, 0.15607607, 0.11906916, 0.14286917, 0.113705285, 0.040223166, -0.19069004, 0
1118, 233510846, 0.9699377, 0.15644437, 0.119758956, 0.14284173, 0.06532211, 0.06753936, -0.22073841, 0
1119, 233527513, 0.9697954, 0.15702678, 0.12012505, 0.14286222, 0.10505779, -0.08530092, -0.025894165, 0
1120, 233544180, 0.96966815, 0.15791593, 0.11999058, 0.14285958, 0.044090167, -0.057756864, 0.0051574707, 0
1121, 233560847, 0.9695254, 0.15888752, 0.11985283, 0.142866, 0.049469564, 0.02331363, -0.13000965, 0
1122, 233577514, 0.9693457, 0.15974256, 0.12009019, 0.14293325, 0.020303804, 0.06217728, -0.1450758, 0
1123, 233594181, 0.9690857, 0.16072789, 0.12063822, 0.1431296, 0.022239204, -0.0042340057, -0.106539726, 0
1124, 233610848, 0.9687879, 0.16162866, 0.12141929, 0.14346978, 0.057636727, 0.005168625, -0.13348007, 0
1125, 233627515, 0.96848273, 0.16273104, 0.122036375, 0.14376013, 0.15398903, -0.07581716, 0.027236938, 0
1126, 233644182, 0.96815157, 0.1641743, 0.12245355, 0.14399534, 0.005120458, -0.026424708, 0.0256958, 0
1127, 233660849, 0.9677887, 0.16570766, 0.122956075, 0.14424968, -0.0069175023, -0.041224953, 0.054074287, 0
1128, 233677516, 0.96741444, 0.16730034, 0.12352186, 0.14443763, 0.06903466, -0.014611824, 0.07699013, 0
1129, 233694183, 0.9670445, 0.16867462, 0.124376036, 0.1445844, 0.06362487, 0.04746689, 0.009903908, 0
1130, 233710850, 0.9666295, 0.16991796, 0.12563309, 0.1448167, 0.032861657, 0.04698555, -0.016756058, 0
1131, 233727517, 0.966138, 0.17122866, 0.12726477, 0.14512715, 0.08095058, -0.0077645048, -0.02041912, 0
1132, 233744184, 0.96556914, 0.17268173, 0.12922974, 0.14545564, 0.05330985, 0.022952545, 0.029782295, 0
1133, 233760851, 0.9649222, 0.17447701, 0.13125293, 0.14579304, -0.040203836, 0.083822384, -0.022179604, 0
1134, 233777518, 0.9642567, 0.17620516, 0.13338298, 0.14618358, -0.100604296, 0.15533324, -0.18093395, 0
1135, 233794185, 0.9635283, 0.1778326, 0.13590749, 0.14669043, -0.046405982, 0.109766655, -0.2870741, 0
1136, 233810852, 0.9626626, 0.17963448, 0.13901283, 0.1472676, 0.036990613, 0.07915577, -0.3143854, 0
1137, 233827519, 0.9617243, 0.18155082, 0.14235656, 0.14785217, 0.004196679, 0.09632794, -0.3079672, 0
1138, 233844186, 0.96074814, 0.18355998, 0.14571267, 0.1484472, -0.026082061, 0.13589263, -0.23914623, 0
1139, 233860853, 0.9597532, 0.18550989, 0.1489976, 0.14919603, -0.038584482, 0.17249791, -0.3749485, 0
1140, 233877520, 0.9586663, 0.18731605, 0.15271449, 0.15016553, -0.024505401, 0.104657486, -0.54007244, 0
1141, 233894187, 0.95744807, 0.18908341, 0.15706937, 0.1512276, 0.06893419, -0.03361076, -0.50533485, 0
1142, 233910854, 0.9561478, 0.1911164, 0.161591, 0.15213259, 0.1232199, -0.1128793, -0.29559612, 0
1143, 233927521, 0.9548838, 0.1932162, 0.1658073, 0.15288092, -0.033911496, -0.08270594, -0.23464489, 0
1144, 233944188, 0.95359945, 0.19541119, 0.16991663, 0.15359305, -0.13142975, -0.023033569, -0.15048122, 0
1145, 233960855, 0.95228577, 0.19791532, 0.17375204, 0.15424487, -0.14617412, 0.06771225, -0.114336014, 0
1146, 233977522, 0.95097387, 0.20028311, 0.17752345, 0.15498708, -0.2002657, 0.12828739, -0.1929245, 0
1147, 233994189, 0.9495997, 0.20229508, 0.18179941, 0.15584068, -0.066010304, 0.042404767, -0.2975626, 0
1148, 234010856, 0.9480903, 0.20440906, 0.18651985, 0.15669136, 0.024274066, -0.16123085, -0.15181541, 0
1149, 234027523, 0.94648266, 0.20649599, 0.19159774, 0.15754479, 0.034166303, -0.24166243, -0.014052391, 0
1150, 234044190, 0.94496095, 0.20829988, 0.19645502, 0.15832101, 0.030348813, -0.23363474, 0.2342081, 0
1151, 234060857, 0.94356555, 0.21006757, 0.20088401, 0.15874922, -0.10583137, -0.10437831, 0.2875538, 0
1152, 234077524, 0.9422356, 0.21178614, 0.20514049, 0.15892184, -0.22348905, 0.027985163, 0.23121452, 0
1153, 234094191, 0.94082457, 0.21369024, 0.20948629, 0.15906411, -0.2400234, 0.10225248, 0.110892296, 0
1154, 234110858, 0.9392355, 0.21575329, 0.21432644, 0.15922129, -0.120912015, 0.24060544, -0.19336891, 0
1155, 234127525, 0.93735373, 0.21802646, 0.21991101, 0.15959887, 0.10379405, 0.2754444, -0.50210476, 0
1156, 234144192, 0.9352108, 0.22031182, 0.22626187, 0.16015299, 0.29703465, 0.28283608, -0.6880655, 0
1157, 234160859, 0.93289953, 0.22254801, 0.23300387, 0.16087301, 0.2801489, 0.15248032, -0.71667004, 0
